timestamp,gyro_x,gyro_y,gyro_z,accel_x,accel_y,accel_z,gravity_x,gravity_y,gravity_z
1703342731692,0.01954767294228077,0.12003492563962936,0.02611446939408779,-0.07728230953216553,-0.10974550247192383,-0.0798807144165039,0.9739925861358643,7.726398944854736,5.96024227142334
1703342731791,0.01954767294228077,0.12003492563962936,0.02611446939408779,-0.07728230953216553,-0.10974550247192383,-0.0798807144165039,0.9739925861358643,7.726398944854736,5.96024227142334
1703342731887,0.01954767294228077,0.12003492563962936,0.02611446939408779,-0.07728230953216553,-0.10974550247192383,-0.0798807144165039,0.9739925861358643,7.726398944854736,5.96024227142334
1703342731985,0.01954767294228077,0.12003492563962936,0.02611446939408779,-0.07728230953216553,-0.10974550247192383,-0.0798807144165039,0.9739925861358643,7.726398944854736,5.96024227142334
1703342732083,0.01954767294228077,0.12003492563962936,0.02611446939408779,-0.07728230953216553,-0.10974550247192383,-0.0798807144165039,0.9739925861358643,7.726398944854736,5.96024227142334
1703342732181,0.01954767294228077,0.12003492563962936,0.02611446939408779,-0.07728230953216553,-0.10974550247192383,-0.0798807144165039,0.9739925861358643,7.726398944854736,5.96024227142334
1703342732278,0.01954767294228077,0.12003492563962936,0.02611446939408779,-0.07728230953216553,-0.10974550247192383,-0.0798807144165039,0.9739925861358643,7.726398944854736,5.96024227142334
1703342732376,0.01954767294228077,0.12003492563962936,0.02611446939408779,-0.07728230953216553,-0.10974550247192383,-0.0798807144165039,0.9739925861358643,7.726398944854736,5.96024227142334
1703342732473,0.01954767294228077,0.12003492563962936,0.02611446939408779,-0.07728230953216553,-0.10974550247192383,-0.0798807144165039,0.9739925861358643,7.726398944854736,5.96024227142334
1703342732571,0.01954767294228077,0.12003492563962936,0.02611446939408779,-0.07728230953216553,-0.10974550247192383,-0.0798807144165039,0.9739925861358643,7.726398944854736,5.96024227142334
1703342732669,0.01954767294228077,0.12003492563962936,0.02611446939408779,-0.07728230953216553,-0.10974550247192383,-0.0798807144165039,0.9739925861358643,7.726398944854736,5.96024227142334
1703342732766,0.01954767294228077,0.12003492563962936,0.02611446939408779,-0.07728230953216553,-0.10974550247192383,-0.0798807144165039,0.9739925861358643,7.726398944854736,5.96024227142334
1703342732864,0.01954767294228077,0.12003492563962936,0.02611446939408779,-0.07728230953216553,-0.10974550247192383,-0.0798807144165039,0.9739925861358643,7.726398944854736,5.96024227142334
1703342732962,0.01954767294228077,0.12003492563962936,0.02611446939408779,-0.07728230953216553,-0.10974550247192383,-0.0798807144165039,0.9739925861358643,7.726398944854736,5.96024227142334
1703342733059,0.01954767294228077,0.12003492563962936,0.02611446939408779,-0.07728230953216553,-0.10974550247192383,-0.0798807144165039,0.9739925861358643,7.726398944854736,5.96024227142334
1703342733157,0.01954767294228077,0.12003492563962936,0.02611446939408779,-0.07728230953216553,-0.10974550247192383,-0.0798807144165039,0.9739925861358643,7.726398944854736,5.96024227142334
1703342733254,0.01954767294228077,0.12003492563962936,0.02611446939408779,-0.07728230953216553,-0.10974550247192383,-0.0798807144165039,0.9739925861358643,7.726398944854736,5.96024227142334
1703342733352,0.01954767294228077,0.12003492563962936,0.02611446939408779,-0.07728230953216553,-0.10974550247192383,-0.0798807144165039,0.9739925861358643,7.726398944854736,5.96024227142334
1703342733449,0.01954767294228077,0.12003492563962936,0.02611446939408779,-0.07728230953216553,-0.10974550247192383,-0.0798807144165039,0.9739925861358643,7.726398944854736,5.96024227142334
1703342733547,0.01954767294228077,0.12003492563962936,0.02611446939408779,-0.07728230953216553,-0.10974550247192383,-0.0798807144165039,0.9739925861358643,7.726398944854736,5.96024227142334
1703342733645,0.01954767294228077,0.12003492563962936,0.02611446939408779,-0.07728230953216553,-0.10974550247192383,-0.0798807144165039,0.9739925861358643,7.726398944854736,5.96024227142334
1703342733742,0.01954767294228077,0.12003492563962936,0.02611446939408779,-0.07728230953216553,-0.10974550247192383,-0.0798807144165039,0.9739925861358643,7.726398944854736,5.96024227142334
1703342733840,0.01954767294228077,0.12003492563962936,0.02611446939408779,-0.07728230953216553,-0.10974550247192383,-0.0798807144165039,0.9739925861358643,7.726398944854736,5.96024227142334
1703342733938,0.01954767294228077,0.12003492563962936,0.02611446939408779,-0.07728230953216553,-0.10974550247192383,-0.0798807144165039,0.9739925861358643,7.726398944854736,5.96024227142334
1703342734035,0.01954767294228077,0.12003492563962936,0.02611446939408779,-0.07728230953216553,-0.10974550247192383,-0.0798807144165039,0.9739925861358643,7.726398944854736,5.96024227142334
1703342734133,0.01954767294228077,0.12003492563962936,0.02611446939408779,-0.07728230953216553,-0.10974550247192383,-0.0798807144165039,0.9739925861358643,7.726398944854736,5.96024227142334
1703342734231,0.01954767294228077,0.12003492563962936,0.02611446939408779,-0.07728230953216553,-0.10974550247192383,-0.0798807144165039,0.9739925861358643,7.726398944854736,5.96024227142334
1703342734328,0.01954767294228077,0.12003492563962936,0.02611446939408779,-0.07728230953216553,-0.10974550247192383,-0.0798807144165039,0.9739925861358643,7.726398944854736,5.96024227142334
1703342734425,0.01954767294228077,0.12003492563962936,0.02611446939408779,-0.07728230953216553,-0.10974550247192383,-0.0798807144165039,0.9739925861358643,7.726398944854736,5.96024227142334
1703342734524,0.01954767294228077,0.12003492563962936,0.02611446939408779,-0.07728230953216553,-0.10974550247192383,-0.0798807144165039,0.9739925861358643,7.726398944854736,5.96024227142334
1703342734621,0.01954767294228077,0.12003492563962936,0.02611446939408779,-0.07728230953216553,-0.10974550247192383,-0.0798807144165039,0.9739925861358643,7.726398944854736,5.96024227142334
1703342734719,0.01954767294228077,0.12003492563962936,0.02611446939408779,-0.07728230953216553,-0.10974550247192383,-0.0798807144165039,0.9739925861358643,7.726398944854736,5.96024227142334
1703342734816,0.01954767294228077,0.12003492563962936,0.02611446939408779,-0.07728230953216553,-0.10974550247192383,-0.0798807144165039,0.9739925861358643,7.726398944854736,5.96024227142334
1703342734914,0.01954767294228077,0.12003492563962936,0.02611446939408779,-0.07728230953216553,-0.10974550247192383,-0.0798807144165039,0.9739925861358643,7.726398944854736,5.96024227142334
1703342735012,0.01954767294228077,0.12003492563962936,0.02611446939408779,-0.07728230953216553,-0.10974550247192383,-0.0798807144165039,0.9739925861358643,7.726398944854736,5.96024227142334
1703342735110,0.01954767294228077,0.12003492563962936,0.02611446939408779,-0.07728230953216553,-0.10974550247192383,-0.0798807144165039,0.9739925861358643,7.726398944854736,5.96024227142334
1703342735207,0.01954767294228077,0.12003492563962936,0.02611446939408779,-0.07728230953216553,-0.10974550247192383,-0.0798807144165039,0.9739925861358643,7.726398944854736,5.96024227142334
1703342735305,0.01954767294228077,0.12003492563962936,0.02611446939408779,-0.07728230953216553,-0.10974550247192383,-0.0798807144165039,0.9739925861358643,7.726398944854736,5.96024227142334
1703342735402,0.01954767294228077,0.12003492563962936,0.02611446939408779,-0.07728230953216553,-0.10974550247192383,-0.0798807144165039,0.9739925861358643,7.726398944854736,5.96024227142334
1703342735500,0.01954767294228077,0.12003492563962936,0.02611446939408779,-0.07728230953216553,-0.10974550247192383,-0.0798807144165039,0.9739925861358643,7.726398944854736,5.96024227142334
1703342735598,0.01954767294228077,0.12003492563962936,0.02611446939408779,-0.07728230953216553,-0.10974550247192383,-0.0798807144165039,0.9739925861358643,7.726398944854736,5.96024227142334
1703342735695,0.01954767294228077,0.12003492563962936,0.02611446939408779,-0.07728230953216553,-0.10974550247192383,-0.0798807144165039,0.9739925861358643,7.726398944854736,5.96024227142334
1703342735793,0.01954767294228077,0.12003492563962936,0.02611446939408779,-0.07728230953216553,-0.10974550247192383,-0.0798807144165039,0.9739925861358643,7.726398944854736,5.96024227142334
1703342735891,0.01954767294228077,0.12003492563962936,0.02611446939408779,-0.07728230953216553,-0.10974550247192383,-0.0798807144165039,0.9739925861358643,7.726398944854736,5.96024227142334
1703342735988,0.01954767294228077,0.12003492563962936,0.02611446939408779,-0.07728230953216553,-0.10974550247192383,-0.0798807144165039,0.9739925861358643,7.726398944854736,5.96024227142334
1703342736086,0.01954767294228077,0.12003492563962936,0.02611446939408779,-0.07728230953216553,-0.10974550247192383,-0.0798807144165039,0.9739925861358643,7.726398944854736,5.96024227142334
1703342736183,0.01954767294228077,0.12003492563962936,0.02611446939408779,-0.07728230953216553,-0.10974550247192383,-0.0798807144165039,0.9739925861358643,7.726398944854736,5.96024227142334
1703342736281,0.01954767294228077,0.12003492563962936,0.02611446939408779,-0.07728230953216553,-0.10974550247192383,-0.0798807144165039,0.9739925861358643,7.726398944854736,5.96024227142334
1703342736378,0.01954767294228077,0.12003492563962936,0.02611446939408779,-0.07728230953216553,-0.10974550247192383,-0.0798807144165039,0.9739925861358643,7.726398944854736,5.96024227142334
1703342736476,0.01954767294228077,0.12003492563962936,0.02611446939408779,-0.07728230953216553,-0.10974550247192383,-0.0798807144165039,0.9739925861358643,7.726398944854736,5.96024227142334
1703342736672,0.01954767294228077,0.12003492563962936,0.02611446939408779,-0.07728230953216553,-0.10974550247192383,-0.0798807144165039,0.9739925861358643,7.726398944854736,5.96024227142334
1703342736672,0.01954767294228077,0.12003492563962936,0.02611446939408779,-0.07728230953216553,-0.10974550247192383,-0.0798807144165039,0.9739925861358643,7.726398944854736,5.96024227142334
1703342736769,0.01954767294228077,0.12003492563962936,0.02611446939408779,-0.07728230953216553,-0.10974550247192383,-0.0798807144165039,0.9739925861358643,7.726398944854736,5.96024227142334
1703342736866,0.01954767294228077,0.12003492563962936,0.02611446939408779,-0.07728230953216553,-0.10974550247192383,-0.0798807144165039,0.9739925861358643,7.726398944854736,5.96024227142334
1703342736964,0.01954767294228077,0.12003492563962936,0.02611446939408779,-0.07728230953216553,-0.10974550247192383,-0.0798807144165039,0.9739925861358643,7.726398944854736,5.96024227142334
1703342737062,0.01954767294228077,0.12003492563962936,0.02611446939408779,-0.07728230953216553,-0.10974550247192383,-0.0798807144165039,0.9739925861358643,7.726398944854736,5.96024227142334
1703342737159,0.01954767294228077,0.12003492563962936,0.02611446939408779,-0.07728230953216553,-0.10974550247192383,-0.0798807144165039,0.9739925861358643,7.726398944854736,5.96024227142334
1703342737257,0.01954767294228077,0.12003492563962936,0.02611446939408779,-0.07728230953216553,-0.10974550247192383,-0.0798807144165039,0.9739925861358643,7.726398944854736,5.96024227142334
1703342737452,0.01954767294228077,0.12003492563962936,0.02611446939408779,-0.07728230953216553,-0.10974550247192383,-0.0798807144165039,0.9739925861358643,7.726398944854736,5.96024227142334
1703342737452,0.01954767294228077,0.12003492563962936,0.02611446939408779,-0.07728230953216553,-0.10974550247192383,-0.0798807144165039,0.9739925861358643,7.726398944854736,5.96024227142334
1703342737550,0.01954767294228077,0.12003492563962936,0.02611446939408779,-0.07728230953216553,-0.10974550247192383,-0.0798807144165039,0.9739925861358643,7.726398944854736,5.96024227142334
1703342737647,0.01954767294228077,0.12003492563962936,0.02611446939408779,-0.07728230953216553,-0.10974550247192383,-0.0798807144165039,0.9739925861358643,7.726398944854736,5.96024227142334
1703342737745,0.01954767294228077,0.12003492563962936,0.02611446939408779,-0.07728230953216553,-0.10974550247192383,-0.0798807144165039,0.9739925861358643,7.726398944854736,5.96024227142334
1703342737842,0.01954767294228077,0.12003492563962936,0.02611446939408779,-0.07728230953216553,-0.10974550247192383,-0.0798807144165039,0.9739925861358643,7.726398944854736,5.96024227142334
1703342737940,0.01954767294228077,0.12003492563962936,0.02611446939408779,-0.07728230953216553,-0.10974550247192383,-0.0798807144165039,0.9739925861358643,7.726398944854736,5.96024227142334
1703342738037,0.01954767294228077,0.12003492563962936,0.02611446939408779,-0.07728230953216553,-0.10974550247192383,-0.0798807144165039,0.9739925861358643,7.726398944854736,5.96024227142334
1703342738135,0.01954767294228077,0.12003492563962936,0.02611446939408779,-0.07728230953216553,-0.10974550247192383,-0.0798807144165039,0.9739925861358643,7.726398944854736,5.96024227142334
1703342738233,0.01954767294228077,0.12003492563962936,0.02611446939408779,-0.07728230953216553,-0.10974550247192383,-0.0798807144165039,0.9739925861358643,7.726398944854736,5.96024227142334
1703342738331,0.01954767294228077,0.12003492563962936,0.02611446939408779,-0.07728230953216553,-0.10974550247192383,-0.0798807144165039,0.9739925861358643,7.726398944854736,5.96024227142334
1703342738429,0.01954767294228077,0.12003492563962936,0.02611446939408779,-0.07728230953216553,-0.10974550247192383,-0.0798807144165039,0.9739925861358643,7.726398944854736,5.96024227142334
1703342738526,0.01954767294228077,0.12003492563962936,0.02611446939408779,-0.07728230953216553,-0.10974550247192383,-0.0798807144165039,0.9739925861358643,7.726398944854736,5.96024227142334
1703342738624,0.01954767294228077,0.12003492563962936,0.02611446939408779,-0.07728230953216553,-0.10974550247192383,-0.0798807144165039,0.9739925861358643,7.726398944854736,5.96024227142334
1703342738721,0.01954767294228077,0.12003492563962936,0.02611446939408779,-0.07728230953216553,-0.10974550247192383,-0.0798807144165039,0.9739925861358643,7.726398944854736,5.96024227142334
1703342738819,0.01954767294228077,0.12003492563962936,0.02611446939408779,-0.07728230953216553,-0.10974550247192383,-0.0798807144165039,0.9739925861358643,7.726398944854736,5.96024227142334
1703342738917,0.01954767294228077,0.12003492563962936,0.02611446939408779,-0.07728230953216553,-0.10974550247192383,-0.0798807144165039,0.9739925861358643,7.726398944854736,5.96024227142334
1703342739014,0.01954767294228077,0.12003492563962936,0.02611446939408779,-0.07728230953216553,-0.10974550247192383,-0.0798807144165039,0.9739925861358643,7.726398944854736,5.96024227142334
1703342739112,0.01954767294228077,0.12003492563962936,0.02611446939408779,-0.07728230953216553,-0.10974550247192383,-0.0798807144165039,0.9739925861358643,7.726398944854736,5.96024227142334
1703342739210,0.01954767294228077,0.12003492563962936,0.02611446939408779,-0.07728230953216553,-0.10974550247192383,-0.0798807144165039,0.9739925861358643,7.726398944854736,5.96024227142334
1703342739307,0.01954767294228077,0.12003492563962936,0.02611446939408779,-0.07728230953216553,-0.10974550247192383,-0.0798807144165039,0.9739925861358643,7.726398944854736,5.96024227142334
1703342739404,0.01954767294228077,0.12003492563962936,0.02611446939408779,-0.07728230953216553,-0.10974550247192383,-0.0798807144165039,0.9739925861358643,7.726398944854736,5.96024227142334
1703342739502,0.01954767294228077,0.12003492563962936,0.02611446939408779,-0.07728230953216553,-0.10974550247192383,-0.0798807144165039,0.9739925861358643,7.726398944854736,5.96024227142334
1703342739600,0.01954767294228077,0.12003492563962936,0.02611446939408779,-0.07728230953216553,-0.10974550247192383,-0.0798807144165039,0.9739925861358643,7.726398944854736,5.96024227142334
1703342739698,0.01954767294228077,0.12003492563962936,0.02611446939408779,-0.07728230953216553,-0.10974550247192383,-0.0798807144165039,0.9739925861358643,7.726398944854736,5.96024227142334
1703342739795,0.01954767294228077,0.12003492563962936,0.02611446939408779,-0.07728230953216553,-0.10974550247192383,-0.0798807144165039,0.9739925861358643,7.726398944854736,5.96024227142334
1703342739893,0.01954767294228077,0.12003492563962936,0.02611446939408779,-0.07728230953216553,-0.10974550247192383,-0.0798807144165039,0.9739925861358643,7.726398944854736,5.96024227142334
1703342739990,0.01954767294228077,0.12003492563962936,0.02611446939408779,-0.07728230953216553,-0.10974550247192383,-0.0798807144165039,0.9739925861358643,7.726398944854736,5.96024227142334
1703342740088,0.01954767294228077,0.12003492563962936,0.02611446939408779,-0.07728230953216553,-0.10974550247192383,-0.0798807144165039,0.9739925861358643,7.726398944854736,5.96024227142334
1703342740186,0.01954767294228077,0.12003492563962936,0.02611446939408779,-0.07728230953216553,-0.10974550247192383,-0.0798807144165039,0.9739925861358643,7.726398944854736,5.96024227142334
1703342740283,0.01954767294228077,0.12003492563962936,0.02611446939408779,-0.07728230953216553,-0.10974550247192383,-0.0798807144165039,0.9739925861358643,7.726398944854736,5.96024227142334
1703342740381,0.01954767294228077,0.12003492563962936,0.02611446939408779,-0.07728230953216553,-0.10974550247192383,-0.0798807144165039,0.9739925861358643,7.726398944854736,5.96024227142334
1703342740478,0.01954767294228077,0.12003492563962936,0.02611446939408779,-0.07728230953216553,-0.10974550247192383,-0.0798807144165039,0.9739925861358643,7.726398944854736,5.96024227142334
1703342740576,0.01954767294228077,0.12003492563962936,0.02611446939408779,-0.07728230953216553,-0.10974550247192383,-0.0798807144165039,0.9739925861358643,7.726398944854736,5.96024227142334
1703342740674,0.01954767294228077,0.12003492563962936,0.02611446939408779,-0.07728230953216553,-0.10974550247192383,-0.0798807144165039,0.9739925861358643,7.726398944854736,5.96024227142334
1703342740771,0.01954767294228077,0.12003492563962936,0.02611446939408779,-0.07728230953216553,-0.10974550247192383,-0.0798807144165039,0.9739925861358643,7.726398944854736,5.96024227142334
1703342740869,0.01954767294228077,0.12003492563962936,0.02611446939408779,-0.07728230953216553,-0.10974550247192383,-0.0798807144165039,0.9739925861358643,7.726398944854736,5.96024227142334
1703342740966,0.01954767294228077,0.12003492563962936,0.02611446939408779,-0.07728230953216553,-0.10974550247192383,-0.0798807144165039,0.9739925861358643,7.726398944854736,5.96024227142334
1703342741065,0.01954767294228077,0.12003492563962936,0.02611446939408779,-0.07728230953216553,-0.10974550247192383,-0.0798807144165039,0.9739925861358643,7.726398944854736,5.96024227142334
1703342741161,0.01954767294228077,0.12003492563962936,0.02611446939408779,-0.07728230953216553,-0.10974550247192383,-0.0798807144165039,0.9739925861358643,7.726398944854736,5.96024227142334
1703342741260,0.01954767294228077,0.12003492563962936,0.02611446939408779,-0.07728230953216553,-0.10974550247192383,-0.0798807144165039,0.9739925861358643,7.726398944854736,5.96024227142334
1703342741357,0.01954767294228077,0.12003492563962936,0.02611446939408779,-0.07728230953216553,-0.10974550247192383,-0.0798807144165039,0.9739925861358643,7.726398944854736,5.96024227142334
1703342741455,0.01954767294228077,0.12003492563962936,0.02611446939408779,-0.07728230953216553,-0.10974550247192383,-0.0798807144165039,0.9739925861358643,7.726398944854736,5.96024227142334
1703342741553,0.01954767294228077,0.12003492563962936,0.02611446939408779,-0.07728230953216553,-0.10974550247192383,-0.0798807144165039,0.9739925861358643,7.726398944854736,5.96024227142334
1703342741650,0.01954767294228077,0.12003492563962936,0.02611446939408779,-0.07728230953216553,-0.10974550247192383,-0.0798807144165039,0.9739925861358643,7.726398944854736,5.96024227142334
1703342741748,0.01954767294228077,0.12003492563962936,0.02611446939408779,-0.07728230953216553,-0.10974550247192383,-0.0798807144165039,0.9739925861358643,7.726398944854736,5.96024227142334
1703342741845,0.01954767294228077,0.12003492563962936,0.02611446939408779,-0.07728230953216553,-0.10974550247192383,-0.0798807144165039,0.9739925861358643,7.726398944854736,5.96024227142334
1703342741943,0.01954767294228077,0.12003492563962936,0.02611446939408779,-0.07728230953216553,-0.10974550247192383,-0.0798807144165039,0.9739925861358643,7.726398944854736,5.96024227142334
1703342742040,0.01954767294228077,0.12003492563962936,0.02611446939408779,-0.07728230953216553,-0.10974550247192383,-0.0798807144165039,0.9739925861358643,7.726398944854736,5.96024227142334
1703342742138,0.01954767294228077,0.12003492563962936,0.02611446939408779,-0.07728230953216553,-0.10974550247192383,-0.0798807144165039,0.9739925861358643,7.726398944854736,5.96024227142334
1703342742236,0.01954767294228077,0.12003492563962936,0.02611446939408779,-0.07728230953216553,-0.10974550247192383,-0.0798807144165039,0.9739925861358643,7.726398944854736,5.96024227142334
1703342742334,0.01954767294228077,0.12003492563962936,0.02611446939408779,-0.07728230953216553,-0.10974550247192383,-0.0798807144165039,0.9739925861358643,7.726398944854736,5.96024227142334
1703342742431,0.01954767294228077,0.12003492563962936,0.02611446939408779,-0.07728230953216553,-0.10974550247192383,-0.0798807144165039,0.9739925861358643,7.726398944854736,5.96024227142334
1703342742528,0.01954767294228077,0.12003492563962936,0.02611446939408779,-0.07728230953216553,-0.10974550247192383,-0.0798807144165039,0.9739925861358643,7.726398944854736,5.96024227142334
1703342742626,0.01954767294228077,0.12003492563962936,0.02611446939408779,-0.07728230953216553,-0.10974550247192383,-0.0798807144165039,0.9739925861358643,7.726398944854736,5.96024227142334
1703342742724,0.01954767294228077,0.12003492563962936,0.02611446939408779,-0.07728230953216553,-0.10974550247192383,-0.0798807144165039,0.9739925861358643,7.726398944854736,5.96024227142334
1703342742822,0.01954767294228077,0.12003492563962936,0.02611446939408779,-0.07728230953216553,-0.10974550247192383,-0.0798807144165039,0.9739925861358643,7.726398944854736,5.96024227142334
1703342742919,0.01954767294228077,0.12003492563962936,0.02611446939408779,-0.07728230953216553,-0.10974550247192383,-0.0798807144165039,0.9739925861358643,7.726398944854736,5.96024227142334
1703342743016,0.01954767294228077,0.12003492563962936,0.02611446939408779,-0.07728230953216553,-0.10974550247192383,-0.0798807144165039,0.9739925861358643,7.726398944854736,5.96024227142334
1703342743115,0.01954767294228077,0.12003492563962936,0.02611446939408779,-0.07728230953216553,-0.10974550247192383,-0.0798807144165039,0.9739925861358643,7.726398944854736,5.96024227142334
1703342743212,0.01954767294228077,0.12003492563962936,0.02611446939408779,-0.07728230953216553,-0.10974550247192383,-0.0798807144165039,0.9739925861358643,7.726398944854736,5.96024227142334
1703342743310,0.01954767294228077,0.12003492563962936,0.02611446939408779,-0.07728230953216553,-0.10974550247192383,-0.0798807144165039,0.9739925861358643,7.726398944854736,5.96024227142334
1703342743407,0.01954767294228077,0.12003492563962936,0.02611446939408779,-0.07728230953216553,-0.10974550247192383,-0.0798807144165039,0.9739925861358643,7.726398944854736,5.96024227142334
1703342743505,0.01954767294228077,0.12003492563962936,0.02611446939408779,-0.07728230953216553,-0.10974550247192383,-0.0798807144165039,0.9739925861358643,7.726398944854736,5.96024227142334
1703342743602,0.01954767294228077,0.12003492563962936,0.02611446939408779,-0.07728230953216553,-0.10974550247192383,-0.0798807144165039,0.9739925861358643,7.726398944854736,5.96024227142334
1703342743700,0.01954767294228077,0.12003492563962936,0.02611446939408779,-0.07728230953216553,-0.10974550247192383,-0.0798807144165039,0.9739925861358643,7.726398944854736,5.96024227142334
1703342743797,0.01954767294228077,0.12003492563962936,0.02611446939408779,-0.07728230953216553,-0.10974550247192383,-0.0798807144165039,0.9739925861358643,7.726398944854736,5.96024227142334
1703342743895,0.01954767294228077,0.12003492563962936,0.02611446939408779,-0.07728230953216553,-0.10974550247192383,-0.0798807144165039,0.9739925861358643,7.726398944854736,5.96024227142334
1703342743992,0.01954767294228077,0.12003492563962936,0.02611446939408779,-0.07728230953216553,-0.10974550247192383,-0.0798807144165039,0.9739925861358643,7.726398944854736,5.96024227142334
1703342744090,0.01954767294228077,0.12003492563962936,0.02611446939408779,-0.07728230953216553,-0.10974550247192383,-0.0798807144165039,0.9739925861358643,7.726398944854736,5.96024227142334
1703342744188,0.01954767294228077,0.12003492563962936,0.02611446939408779,-0.07728230953216553,-0.10974550247192383,-0.0798807144165039,0.9739925861358643,7.726398944854736,5.96024227142334
1703342744286,0.01954767294228077,0.12003492563962936,0.02611446939408779,-0.07728230953216553,-0.10974550247192383,-0.0798807144165039,0.9739925861358643,7.726398944854736,5.96024227142334
1703342744384,0.01954767294228077,0.12003492563962936,0.02611446939408779,-0.07728230953216553,-0.10974550247192383,-0.0798807144165039,0.9739925861358643,7.726398944854736,5.96024227142334
1703342744481,0.01954767294228077,0.12003492563962936,0.02611446939408779,-0.07728230953216553,-0.10974550247192383,-0.0798807144165039,0.9739925861358643,7.726398944854736,5.96024227142334
1703342744579,0.01954767294228077,0.12003492563962936,0.02611446939408779,-0.07728230953216553,-0.10974550247192383,-0.0798807144165039,0.9739925861358643,7.726398944854736,5.96024227142334
1703342744676,0.01954767294228077,0.12003492563962936,0.02611446939408779,-0.07728230953216553,-0.10974550247192383,-0.0798807144165039,0.9739925861358643,7.726398944854736,5.96024227142334
1703342744774,0.01954767294228077,0.12003492563962936,0.02611446939408779,-0.07728230953216553,-0.10974550247192383,-0.0798807144165039,0.9739925861358643,7.726398944854736,5.96024227142334
1703342744871,0.01954767294228077,0.12003492563962936,0.02611446939408779,-0.07728230953216553,-0.10974550247192383,-0.0798807144165039,0.9739925861358643,7.726398944854736,5.96024227142334
1703342744969,0.01954767294228077,0.12003492563962936,0.02611446939408779,-0.07728230953216553,-0.10974550247192383,-0.0798807144165039,0.9739925861358643,7.726398944854736,5.96024227142334
1703342745067,0.01954767294228077,0.12003492563962936,0.02611446939408779,-0.07728230953216553,-0.10974550247192383,-0.0798807144165039,0.9739925861358643,7.726398944854736,5.96024227142334
1703342745165,0.01954767294228077,0.12003492563962936,0.02611446939408779,-0.07728230953216553,-0.10974550247192383,-0.0798807144165039,0.9739925861358643,7.726398944854736,5.96024227142334
1703342745262,0.01954767294228077,0.12003492563962936,0.02611446939408779,-0.07728230953216553,-0.10974550247192383,-0.0798807144165039,0.9739925861358643,7.726398944854736,5.96024227142334
1703342745359,0.01954767294228077,0.12003492563962936,0.02611446939408779,-0.07728230953216553,-0.10974550247192383,-0.0798807144165039,0.9739925861358643,7.726398944854736,5.96024227142334
1703342745457,0.01954767294228077,0.12003492563962936,0.02611446939408779,-0.07728230953216553,-0.10974550247192383,-0.0798807144165039,0.9739925861358643,7.726398944854736,5.96024227142334
1703342745554,0.01954767294228077,0.12003492563962936,0.02611446939408779,-0.07728230953216553,-0.10974550247192383,-0.0798807144165039,0.9739925861358643,7.726398944854736,5.96024227142334
1703342745652,0.01954767294228077,0.12003492563962936,0.02611446939408779,-0.07728230953216553,-0.10974550247192383,-0.0798807144165039,0.9739925861358643,7.726398944854736,5.96024227142334
1703342745750,0.01954767294228077,0.12003492563962936,0.02611446939408779,-0.07728230953216553,-0.10974550247192383,-0.0798807144165039,0.9739925861358643,7.726398944854736,5.96024227142334
1703342745848,0.01954767294228077,0.12003492563962936,0.02611446939408779,-0.07728230953216553,-0.10974550247192383,-0.0798807144165039,0.9739925861358643,7.726398944854736,5.96024227142334
1703342745945,0.01954767294228077,0.12003492563962936,0.02611446939408779,-0.07728230953216553,-0.10974550247192383,-0.0798807144165039,0.9739925861358643,7.726398944854736,5.96024227142334
1703342746043,0.01954767294228077,0.12003492563962936,0.02611446939408779,-0.07728230953216553,-0.10974550247192383,-0.0798807144165039,0.9739925861358643,7.726398944854736,5.96024227142334
1703342746141,0.01954767294228077,0.12003492563962936,0.02611446939408779,-0.07728230953216553,-0.10974550247192383,-0.0798807144165039,0.9739925861358643,7.726398944854736,5.96024227142334
1703342746239,0.01954767294228077,0.12003492563962936,0.02611446939408779,-0.07728230953216553,-0.10974550247192383,-0.0798807144165039,0.9739925861358643,7.726398944854736,5.96024227142334
1703342746336,0.01954767294228077,0.12003492563962936,0.02611446939408779,-0.07728230953216553,-0.10974550247192383,-0.0798807144165039,0.9739925861358643,7.726398944854736,5.96024227142334
1703342746433,0.01954767294228077,0.12003492563962936,0.02611446939408779,-0.07728230953216553,-0.10974550247192383,-0.0798807144165039,0.9739925861358643,7.726398944854736,5.96024227142334
1703342746531,0.01954767294228077,0.12003492563962936,0.02611446939408779,-0.07728230953216553,-0.10974550247192383,-0.0798807144165039,0.9739925861358643,7.726398944854736,5.96024227142334
1703342746628,0.01954767294228077,0.12003492563962936,0.02611446939408779,-0.07728230953216553,-0.10974550247192383,-0.0798807144165039,0.9739925861358643,7.726398944854736,5.96024227142334
1703342746726,0.01954767294228077,0.12003492563962936,0.02611446939408779,-0.07728230953216553,-0.10974550247192383,-0.0798807144165039,0.9739925861358643,7.726398944854736,5.96024227142334
1703342746824,0.01954767294228077,0.12003492563962936,0.02611446939408779,-0.07728230953216553,-0.10974550247192383,-0.0798807144165039,0.9739925861358643,7.726398944854736,5.96024227142334
1703342746922,0.01954767294228077,0.12003492563962936,0.02611446939408779,-0.07728230953216553,-0.10974550247192383,-0.0798807144165039,0.9739925861358643,7.726398944854736,5.96024227142334
1703342747019,0.01954767294228077,0.12003492563962936,0.02611446939408779,-0.07728230953216553,-0.10974550247192383,-0.0798807144165039,0.9739925861358643,7.726398944854736,5.96024227142334
1703342747117,0.01954767294228077,0.12003492563962936,0.02611446939408779,-0.07728230953216553,-0.10974550247192383,-0.0798807144165039,0.9739925861358643,7.726398944854736,5.96024227142334
1703342747215,0.01954767294228077,0.12003492563962936,0.02611446939408779,-0.07728230953216553,-0.10974550247192383,-0.0798807144165039,0.9739925861358643,7.726398944854736,5.96024227142334
1703342747312,0.01954767294228077,0.12003492563962936,0.02611446939408779,-0.07728230953216553,-0.10974550247192383,-0.0798807144165039,0.9739925861358643,7.726398944854736,5.96024227142334
1703342747409,0.01954767294228077,0.12003492563962936,0.02611446939408779,-0.07728230953216553,-0.10974550247192383,-0.0798807144165039,0.9739925861358643,7.726398944854736,5.96024227142334
1703342747604,0.01954767294228077,0.12003492563962936,0.02611446939408779,-0.07728230953216553,-0.10974550247192383,-0.0798807144165039,0.9739925861358643,7.726398944854736,5.96024227142334
1703342747604,0.01954767294228077,0.12003492563962936,0.02611446939408779,-0.07728230953216553,-0.10974550247192383,-0.0798807144165039,0.9739925861358643,7.726398944854736,5.96024227142334
1703342747702,0.01954767294228077,0.12003492563962936,0.02611446939408779,-0.07728230953216553,-0.10974550247192383,-0.0798807144165039,0.9739925861358643,7.726398944854736,5.96024227142334
1703342747800,0.01954767294228077,0.12003492563962936,0.02611446939408779,-0.07728230953216553,-0.10974550247192383,-0.0798807144165039,0.9739925861358643,7.726398944854736,5.96024227142334
1703342747898,0.01954767294228077,0.12003492563962936,0.02611446939408779,-0.07728230953216553,-0.10974550247192383,-0.0798807144165039,0.9739925861358643,7.726398944854736,5.96024227142334
1703342747995,0.01954767294228077,0.12003492563962936,0.02611446939408779,-0.07728230953216553,-0.10974550247192383,-0.0798807144165039,0.9739925861358643,7.726398944854736,5.96024227142334
1703342748093,0.01954767294228077,0.12003492563962936,0.02611446939408779,-0.07728230953216553,-0.10974550247192383,-0.0798807144165039,0.9739925861358643,7.726398944854736,5.96024227142334
1703342748191,0.01954767294228077,0.12003492563962936,0.02611446939408779,-0.07728230953216553,-0.10974550247192383,-0.0798807144165039,0.9739925861358643,7.726398944854736,5.96024227142334
1703342748288,0.01954767294228077,0.12003492563962936,0.02611446939408779,-0.07728230953216553,-0.10974550247192383,-0.0798807144165039,0.9739925861358643,7.726398944854736,5.96024227142334
1703342748386,0.01954767294228077,0.12003492563962936,0.02611446939408779,-0.07728230953216553,-0.10974550247192383,-0.0798807144165039,0.9739925861358643,7.726398944854736,5.96024227142334
1703342748483,0.01954767294228077,0.12003492563962936,0.02611446939408779,-0.07728230953216553,-0.10974550247192383,-0.0798807144165039,0.9739925861358643,7.726398944854736,5.96024227142334
1703342748581,0.01954767294228077,0.12003492563962936,0.02611446939408779,-0.07728230953216553,-0.10974550247192383,-0.0798807144165039,0.9739925861358643,7.726398944854736,5.96024227142334
1703342748678,0.01954767294228077,0.12003492563962936,0.02611446939408779,-0.07728230953216553,-0.10974550247192383,-0.0798807144165039,0.9739925861358643,7.726398944854736,5.96024227142334
1703342748776,0.01954767294228077,0.12003492563962936,0.02611446939408779,-0.07728230953216553,-0.10974550247192383,-0.0798807144165039,0.9739925861358643,7.726398944854736,5.96024227142334
1703342748874,0.01954767294228077,0.12003492563962936,0.02611446939408779,-0.07728230953216553,-0.10974550247192383,-0.0798807144165039,0.9739925861358643,7.726398944854736,5.96024227142334
1703342748971,0.01954767294228077,0.12003492563962936,0.02611446939408779,-0.07728230953216553,-0.10974550247192383,-0.0798807144165039,0.9739925861358643,7.726398944854736,5.96024227142334
1703342749070,0.01954767294228077,0.12003492563962936,0.02611446939408779,-0.07728230953216553,-0.10974550247192383,-0.0798807144165039,0.9739925861358643,7.726398944854736,5.96024227142334
1703342749167,0.01954767294228077,0.12003492563962936,0.02611446939408779,-0.07728230953216553,-0.10974550247192383,-0.0798807144165039,0.9739925861358643,7.726398944854736,5.96024227142334
1703342749264,0.01954767294228077,0.12003492563962936,0.02611446939408779,-0.07728230953216553,-0.10974550247192383,-0.0798807144165039,0.9739925861358643,7.726398944854736,5.96024227142334
1703342749362,0.01954767294228077,0.12003492563962936,0.02611446939408779,-0.07728230953216553,-0.10974550247192383,-0.0798807144165039,0.9739925861358643,7.726398944854736,5.96024227142334
1703342749460,0.01954767294228077,0.12003492563962936,0.02611446939408779,-0.07728230953216553,-0.10974550247192383,-0.0798807144165039,0.9739925861358643,7.726398944854736,5.96024227142334
1703342749557,0.01954767294228077,0.12003492563962936,0.02611446939408779,-0.07728230953216553,-0.10974550247192383,-0.0798807144165039,0.9739925861358643,7.726398944854736,5.96024227142334
1703342749655,0.01954767294228077,0.12003492563962936,0.02611446939408779,-0.07728230953216553,-0.10974550247192383,-0.0798807144165039,0.9739925861358643,7.726398944854736,5.96024227142334
1703342749752,0.01954767294228077,0.12003492563962936,0.02611446939408779,-0.07728230953216553,-0.10974550247192383,-0.0798807144165039,0.9739925861358643,7.726398944854736,5.96024227142334
1703342749850,0.01954767294228077,0.12003492563962936,0.02611446939408779,-0.07728230953216553,-0.10974550247192383,-0.0798807144165039,0.9739925861358643,7.726398944854736,5.96024227142334
1703342749948,0.01954767294228077,0.12003492563962936,0.02611446939408779,-0.07728230953216553,-0.10974550247192383,-0.0798807144165039,0.9739925861358643,7.726398944854736,5.96024227142334
1703342750045,0.01954767294228077,0.12003492563962936,0.02611446939408779,-0.07728230953216553,-0.10974550247192383,-0.0798807144165039,0.9739925861358643,7.726398944854736,5.96024227142334
1703342750143,0.01954767294228077,0.12003492563962936,0.02611446939408779,-0.07728230953216553,-0.10974550247192383,-0.0798807144165039,0.9739925861358643,7.726398944854736,5.96024227142334
1703342750240,0.01954767294228077,0.12003492563962936,0.02611446939408779,-0.07728230953216553,-0.10974550247192383,-0.0798807144165039,0.9739925861358643,7.726398944854736,5.96024227142334
1703342750338,0.01954767294228077,0.12003492563962936,0.02611446939408779,-0.07728230953216553,-0.10974550247192383,-0.0798807144165039,0.9739925861358643,7.726398944854736,5.96024227142334
1703342750436,0.01954767294228077,0.12003492563962936,0.02611446939408779,-0.07728230953216553,-0.10974550247192383,-0.0798807144165039,0.9739925861358643,7.726398944854736,5.96024227142334
1703342750534,0.01954767294228077,0.12003492563962936,0.02611446939408779,-0.07728230953216553,-0.10974550247192383,-0.0798807144165039,0.9739925861358643,7.726398944854736,5.96024227142334
1703342750631,0.01954767294228077,0.12003492563962936,0.02611446939408779,-0.07728230953216553,-0.10974550247192383,-0.0798807144165039,0.9739925861358643,7.726398944854736,5.96024227142334
1703342750728,0.01954767294228077,0.12003492563962936,0.02611446939408779,-0.07728230953216553,-0.10974550247192383,-0.0798807144165039,0.9739925861358643,7.726398944854736,5.96024227142334
1703342750826,0.01954767294228077,0.12003492563962936,0.02611446939408779,-0.07728230953216553,-0.10974550247192383,-0.0798807144165039,0.9739925861358643,7.726398944854736,5.96024227142334
1703342750924,0.01954767294228077,0.12003492563962936,0.02611446939408779,-0.07728230953216553,-0.10974550247192383,-0.0798807144165039,0.9739925861358643,7.726398944854736,5.96024227142334
1703342751022,0.01954767294228077,0.12003492563962936,0.02611446939408779,-0.07728230953216553,-0.10974550247192383,-0.0798807144165039,0.9739925861358643,7.726398944854736,5.96024227142334
1703342751119,0.01954767294228077,0.12003492563962936,0.02611446939408779,-0.07728230953216553,-0.10974550247192383,-0.0798807144165039,0.9739925861358643,7.726398944854736,5.96024227142334
1703342751217,0.01954767294228077,0.12003492563962936,0.02611446939408779,-0.07728230953216553,-0.10974550247192383,-0.0798807144165039,0.9739925861358643,7.726398944854736,5.96024227142334
1703342751314,0.01954767294228077,0.12003492563962936,0.02611446939408779,-0.07728230953216553,-0.10974550247192383,-0.0798807144165039,0.9739925861358643,7.726398944854736,5.96024227142334
1703342751413,0.01954767294228077,0.12003492563962936,0.02611446939408779,-0.07728230953216553,-0.10974550247192383,-0.0798807144165039,0.9739925861358643,7.726398944854736,5.96024227142334
1703342751510,0.01954767294228077,0.12003492563962936,0.02611446939408779,-0.07728230953216553,-0.10974550247192383,-0.0798807144165039,0.9739925861358643,7.726398944854736,5.96024227142334
1703342751608,0.01954767294228077,0.12003492563962936,0.02611446939408779,-0.07728230953216553,-0.10974550247192383,-0.0798807144165039,0.9739925861358643,7.726398944854736,5.96024227142334
1703342751705,0.01954767294228077,0.12003492563962936,0.02611446939408779,-0.07728230953216553,-0.10974550247192383,-0.0798807144165039,0.9739925861358643,7.726398944854736,5.96024227142334
1703342751802,0.01954767294228077,0.12003492563962936,0.02611446939408779,-0.07728230953216553,-0.10974550247192383,-0.0798807144165039,0.9739925861358643,7.726398944854736,5.96024227142334
1703342751900,0.01954767294228077,0.12003492563962936,0.02611446939408779,-0.07728230953216553,-0.10974550247192383,-0.0798807144165039,0.9739925861358643,7.726398944854736,5.96024227142334
1703342751998,0.01954767294228077,0.12003492563962936,0.02611446939408779,-0.07728230953216553,-0.10974550247192383,-0.0798807144165039,0.9739925861358643,7.726398944854736,5.96024227142334
1703342752096,0.01954767294228077,0.12003492563962936,0.02611446939408779,-0.07728230953216553,-0.10974550247192383,-0.0798807144165039,0.9739925861358643,7.726398944854736,5.96024227142334
1703342752193,0.01954767294228077,0.12003492563962936,0.02611446939408779,-0.07728230953216553,-0.10974550247192383,-0.0798807144165039,0.9739925861358643,7.726398944854736,5.96024227142334
1703342752291,0.01954767294228077,0.12003492563962936,0.02611446939408779,-0.07728230953216553,-0.10974550247192383,-0.0798807144165039,0.9739925861358643,7.726398944854736,5.96024227142334
1703342752388,0.01954767294228077,0.12003492563962936,0.02611446939408779,-0.07728230953216553,-0.10974550247192383,-0.0798807144165039,0.9739925861358643,7.726398944854736,5.96024227142334
1703342752486,0.01954767294228077,0.12003492563962936,0.02611446939408779,-0.07728230953216553,-0.10974550247192383,-0.0798807144165039,0.9739925861358643,7.726398944854736,5.96024227142334
1703342752583,0.01954767294228077,0.12003492563962936,0.02611446939408779,-0.07728230953216553,-0.10974550247192383,-0.0798807144165039,0.9739925861358643,7.726398944854736,5.96024227142334
1703342752681,0.01954767294228077,0.12003492563962936,0.02611446939408779,-0.07728230953216553,-0.10974550247192383,-0.0798807144165039,0.9739925861358643,7.726398944854736,5.96024227142334
1703342752778,0.01954767294228077,0.12003492563962936,0.02611446939408779,-0.07728230953216553,-0.10974550247192383,-0.0798807144165039,0.9739925861358643,7.726398944854736,5.96024227142334
1703342752877,0.01954767294228077,0.12003492563962936,0.02611446939408779,-0.07728230953216553,-0.10974550247192383,-0.0798807144165039,0.9739925861358643,7.726398944854736,5.96024227142334
1703342752974,0.01954767294228077,0.12003492563962936,0.02611446939408779,-0.07728230953216553,-0.10974550247192383,-0.0798807144165039,0.9739925861358643,7.726398944854736,5.96024227142334
1703342753072,0.01954767294228077,0.12003492563962936,0.02611446939408779,-0.07728230953216553,-0.10974550247192383,-0.0798807144165039,0.9739925861358643,7.726398944854736,5.96024227142334
1703342753170,0.01954767294228077,0.12003492563962936,0.02611446939408779,-0.07728230953216553,-0.10974550247192383,-0.0798807144165039,0.9739925861358643,7.726398944854736,5.96024227142334
1703342753267,0.01954767294228077,0.12003492563962936,0.02611446939408779,-0.07728230953216553,-0.10974550247192383,-0.0798807144165039,0.9739925861358643,7.726398944854736,5.96024227142334
1703342753364,0.01954767294228077,0.12003492563962936,0.02611446939408779,-0.07728230953216553,-0.10974550247192383,-0.0798807144165039,0.9739925861358643,7.726398944854736,5.96024227142334
1703342753463,0.01954767294228077,0.12003492563962936,0.02611446939408779,-0.07728230953216553,-0.10974550247192383,-0.0798807144165039,0.9739925861358643,7.726398944854736,5.96024227142334
1703342753560,0.01954767294228077,0.12003492563962936,0.02611446939408779,-0.07728230953216553,-0.10974550247192383,-0.0798807144165039,0.9739925861358643,7.726398944854736,5.96024227142334
1703342753658,0.01954767294228077,0.12003492563962936,0.02611446939408779,-0.07728230953216553,-0.10974550247192383,-0.0798807144165039,0.9739925861358643,7.726398944854736,5.96024227142334
1703342753755,0.01954767294228077,0.12003492563962936,0.02611446939408779,-0.07728230953216553,-0.10974550247192383,-0.0798807144165039,0.9739925861358643,7.726398944854736,5.96024227142334
1703342753852,0.01954767294228077,0.12003492563962936,0.02611446939408779,-0.07728230953216553,-0.10974550247192383,-0.0798807144165039,0.9739925861358643,7.726398944854736,5.96024227142334
1703342753950,0.01954767294228077,0.12003492563962936,0.02611446939408779,-0.07728230953216553,-0.10974550247192383,-0.0798807144165039,0.9739925861358643,7.726398944854736,5.96024227142334
1703342754048,0.01954767294228077,0.12003492563962936,0.02611446939408779,-0.07728230953216553,-0.10974550247192383,-0.0798807144165039,0.9739925861358643,7.726398944854736,5.96024227142334
1703342754145,0.01954767294228077,0.12003492563962936,0.02611446939408779,-0.07728230953216553,-0.10974550247192383,-0.0798807144165039,0.9739925861358643,7.726398944854736,5.96024227142334
1703342754244,0.01954767294228077,0.12003492563962936,0.02611446939408779,-0.07728230953216553,-0.10974550247192383,-0.0798807144165039,0.9739925861358643,7.726398944854736,5.96024227142334
1703342754341,0.01954767294228077,0.12003492563962936,0.02611446939408779,-0.07728230953216553,-0.10974550247192383,-0.0798807144165039,0.9739925861358643,7.726398944854736,5.96024227142334
1703342754439,0.01954767294228077,0.12003492563962936,0.02611446939408779,-0.07728230953216553,-0.10974550247192383,-0.0798807144165039,0.9739925861358643,7.726398944854736,5.96024227142334
1703342754536,0.01954767294228077,0.12003492563962936,0.02611446939408779,-0.07728230953216553,-0.10974550247192383,-0.0798807144165039,0.9739925861358643,7.726398944854736,5.96024227142334
1703342754634,0.01954767294228077,0.12003492563962936,0.02611446939408779,-0.07728230953216553,-0.10974550247192383,-0.0798807144165039,0.9739925861358643,7.726398944854736,5.96024227142334
1703342754731,0.01954767294228077,0.12003492563962936,0.02611446939408779,-0.07728230953216553,-0.10974550247192383,-0.0798807144165039,0.9739925861358643,7.726398944854736,5.96024227142334
1703342754829,0.01954767294228077,0.12003492563962936,0.02611446939408779,-0.07728230953216553,-0.10974550247192383,-0.0798807144165039,0.9739925861358643,7.726398944854736,5.96024227142334
1703342754926,0.01954767294228077,0.12003492563962936,0.02611446939408779,-0.07728230953216553,-0.10974550247192383,-0.0798807144165039,0.9739925861358643,7.726398944854736,5.96024227142334
1703342755025,0.01954767294228077,0.12003492563962936,0.02611446939408779,-0.07728230953216553,-0.10974550247192383,-0.0798807144165039,0.9739925861358643,7.726398944854736,5.96024227142334
1703342755122,0.01954767294228077,0.12003492563962936,0.02611446939408779,-0.07728230953216553,-0.10974550247192383,-0.0798807144165039,0.9739925861358643,7.726398944854736,5.96024227142334
1703342755219,0.01954767294228077,0.12003492563962936,0.02611446939408779,-0.07728230953216553,-0.10974550247192383,-0.0798807144165039,0.9739925861358643,7.726398944854736,5.96024227142334
1703342755316,0.01954767294228077,0.12003492563962936,0.02611446939408779,-0.07728230953216553,-0.10974550247192383,-0.0798807144165039,0.9739925861358643,7.726398944854736,5.96024227142334
1703342755415,0.01954767294228077,0.12003492563962936,0.02611446939408779,-0.07728230953216553,-0.10974550247192383,-0.0798807144165039,0.9739925861358643,7.726398944854736,5.96024227142334
1703342755512,0.01954767294228077,0.12003492563962936,0.02611446939408779,-0.07728230953216553,-0.10974550247192383,-0.0798807144165039,0.9739925861358643,7.726398944854736,5.96024227142334
1703342755609,0.01954767294228077,0.12003492563962936,0.02611446939408779,-0.07728230953216553,-0.10974550247192383,-0.0798807144165039,0.9739925861358643,7.726398944854736,5.96024227142334
1703342755708,0.01954767294228077,0.12003492563962936,0.02611446939408779,-0.07728230953216553,-0.10974550247192383,-0.0798807144165039,0.9739925861358643,7.726398944854736,5.96024227142334
1703342755805,0.01954767294228077,0.12003492563962936,0.02611446939408779,-0.07728230953216553,-0.10974550247192383,-0.0798807144165039,0.9739925861358643,7.726398944854736,5.96024227142334
1703342755902,0.01954767294228077,0.12003492563962936,0.02611446939408779,-0.07728230953216553,-0.10974550247192383,-0.0798807144165039,0.9739925861358643,7.726398944854736,5.96024227142334
1703342756000,0.01954767294228077,0.12003492563962936,0.02611446939408779,-0.07728230953216553,-0.10974550247192383,-0.0798807144165039,0.9739925861358643,7.726398944854736,5.96024227142334
1703342756098,0.01954767294228077,0.12003492563962936,0.02611446939408779,-0.07728230953216553,-0.10974550247192383,-0.0798807144165039,0.9739925861358643,7.726398944854736,5.96024227142334
1703342756195,0.01954767294228077,0.12003492563962936,0.02611446939408779,-0.07728230953216553,-0.10974550247192383,-0.0798807144165039,0.9739925861358643,7.726398944854736,5.96024227142334
1703342756293,0.01954767294228077,0.12003492563962936,0.02611446939408779,-0.07728230953216553,-0.10974550247192383,-0.0798807144165039,0.9739925861358643,7.726398944854736,5.96024227142334
1703342756391,0.01954767294228077,0.12003492563962936,0.02611446939408779,-0.07728230953216553,-0.10974550247192383,-0.0798807144165039,0.9739925861358643,7.726398944854736,5.96024227142334
1703342756488,0.01954767294228077,0.12003492563962936,0.02611446939408779,-0.07728230953216553,-0.10974550247192383,-0.0798807144165039,0.9739925861358643,7.726398944854736,5.96024227142334
1703342756586,0.01954767294228077,0.12003492563962936,0.02611446939408779,-0.07728230953216553,-0.10974550247192383,-0.0798807144165039,0.9739925861358643,7.726398944854736,5.96024227142334
1703342756684,0.01954767294228077,0.12003492563962936,0.02611446939408779,-0.07728230953216553,-0.10974550247192383,-0.0798807144165039,0.9739925861358643,7.726398944854736,5.96024227142334
1703342756781,0.01954767294228077,0.12003492563962936,0.02611446939408779,-0.07728230953216553,-0.10974550247192383,-0.0798807144165039,0.9739925861358643,7.726398944854736,5.96024227142334
1703342756879,0.01954767294228077,0.12003492563962936,0.02611446939408779,-0.07728230953216553,-0.10974550247192383,-0.0798807144165039,0.9739925861358643,7.726398944854736,5.96024227142334
1703342756977,0.01954767294228077,0.12003492563962936,0.02611446939408779,-0.07728230953216553,-0.10974550247192383,-0.0798807144165039,0.9739925861358643,7.726398944854736,5.96024227142334
1703342757074,0.01954767294228077,0.12003492563962936,0.02611446939408779,-0.07728230953216553,-0.10974550247192383,-0.0798807144165039,0.9739925861358643,7.726398944854736,5.96024227142334
1703342757172,0.01954767294228077,0.12003492563962936,0.02611446939408779,-0.07728230953216553,-0.10974550247192383,-0.0798807144165039,0.9739925861358643,7.726398944854736,5.96024227142334
1703342757269,0.01954767294228077,0.12003492563962936,0.02611446939408779,-0.07728230953216553,-0.10974550247192383,-0.0798807144165039,0.9739925861358643,7.726398944854736,5.96024227142334
1703342757367,0.01954767294228077,0.12003492563962936,0.02611446939408779,-0.07728230953216553,-0.10974550247192383,-0.0798807144165039,0.9739925861358643,7.726398944854736,5.96024227142334
1703342757465,0.01954767294228077,0.12003492563962936,0.02611446939408779,-0.07728230953216553,-0.10974550247192383,-0.0798807144165039,0.9739925861358643,7.726398944854736,5.96024227142334
1703342757563,0.01954767294228077,0.12003492563962936,0.02611446939408779,-0.07728230953216553,-0.10974550247192383,-0.0798807144165039,0.9739925861358643,7.726398944854736,5.96024227142334
1703342757660,0.01954767294228077,0.12003492563962936,0.02611446939408779,-0.07728230953216553,-0.10974550247192383,-0.0798807144165039,0.9739925861358643,7.726398944854736,5.96024227142334
1703342757758,0.01954767294228077,0.12003492563962936,0.02611446939408779,-0.07728230953216553,-0.10974550247192383,-0.0798807144165039,0.9739925861358643,7.726398944854736,5.96024227142334
1703342757855,0.01954767294228077,0.12003492563962936,0.02611446939408779,-0.07728230953216553,-0.10974550247192383,-0.0798807144165039,0.9739925861358643,7.726398944854736,5.96024227142334
1703342757953,0.01954767294228077,0.12003492563962936,0.02611446939408779,-0.07728230953216553,-0.10974550247192383,-0.0798807144165039,0.9739925861358643,7.726398944854736,5.96024227142334
1703342758148,0.01954767294228077,0.12003492563962936,0.02611446939408779,-0.07728230953216553,-0.10974550247192383,-0.0798807144165039,0.9739925861358643,7.726398944854736,5.96024227142334
1703342758148,0.01954767294228077,0.12003492563962936,0.02611446939408779,-0.07728230953216553,-0.10974550247192383,-0.0798807144165039,0.9739925861358643,7.726398944854736,5.96024227142334
1703342758246,0.01954767294228077,0.12003492563962936,0.02611446939408779,-0.07728230953216553,-0.10974550247192383,-0.0798807144165039,0.9739925861358643,7.726398944854736,5.96024227142334
1703342758343,0.01954767294228077,0.12003492563962936,0.02611446939408779,-0.07728230953216553,-0.10974550247192383,-0.0798807144165039,0.9739925861358643,7.726398944854736,5.96024227142334
1703342758441,0.01954767294228077,0.12003492563962936,0.02611446939408779,-0.07728230953216553,-0.10974550247192383,-0.0798807144165039,0.9739925861358643,7.726398944854736,5.96024227142334
1703342758539,0.01954767294228077,0.12003492563962936,0.02611446939408779,-0.07728230953216553,-0.10974550247192383,-0.0798807144165039,0.9739925861358643,7.726398944854736,5.96024227142334
1703342758636,0.01954767294228077,0.12003492563962936,0.02611446939408779,-0.07728230953216553,-0.10974550247192383,-0.0798807144165039,0.9739925861358643,7.726398944854736,5.96024227142334
1703342758734,0.01954767294228077,0.12003492563962936,0.02611446939408779,-0.07728230953216553,-0.10974550247192383,-0.0798807144165039,0.9739925861358643,7.726398944854736,5.96024227142334
1703342758832,0.01954767294228077,0.12003492563962936,0.02611446939408779,-0.07728230953216553,-0.10974550247192383,-0.0798807144165039,0.9739925861358643,7.726398944854736,5.96024227142334
1703342758929,0.01954767294228077,0.12003492563962936,0.02611446939408779,-0.07728230953216553,-0.10974550247192383,-0.0798807144165039,0.9739925861358643,7.726398944854736,5.96024227142334
1703342759027,0.01954767294228077,0.12003492563962936,0.02611446939408779,-0.07728230953216553,-0.10974550247192383,-0.0798807144165039,0.9739925861358643,7.726398944854736,5.96024227142334
1703342759124,0.01954767294228077,0.12003492563962936,0.02611446939408779,-0.07728230953216553,-0.10974550247192383,-0.0798807144165039,0.9739925861358643,7.726398944854736,5.96024227142334
1703342759222,0.01954767294228077,0.12003492563962936,0.02611446939408779,-0.07728230953216553,-0.10974550247192383,-0.0798807144165039,0.9739925861358643,7.726398944854736,5.96024227142334
1703342759319,0.01954767294228077,0.12003492563962936,0.02611446939408779,-0.07728230953216553,-0.10974550247192383,-0.0798807144165039,0.9739925861358643,7.726398944854736,5.96024227142334
1703342759417,0.01954767294228077,0.12003492563962936,0.02611446939408779,-0.07728230953216553,-0.10974550247192383,-0.0798807144165039,0.9739925861358643,7.726398944854736,5.96024227142334
1703342759515,0.01954767294228077,0.12003492563962936,0.02611446939408779,-0.07728230953216553,-0.10974550247192383,-0.0798807144165039,0.9739925861358643,7.726398944854736,5.96024227142334
1703342759613,0.01954767294228077,0.12003492563962936,0.02611446939408779,-0.07728230953216553,-0.10974550247192383,-0.0798807144165039,0.9739925861358643,7.726398944854736,5.96024227142334
1703342759710,0.01954767294228077,0.12003492563962936,0.02611446939408779,-0.07728230953216553,-0.10974550247192383,-0.0798807144165039,0.9739925861358643,7.726398944854736,5.96024227142334
1703342759807,0.01954767294228077,0.12003492563962936,0.02611446939408779,-0.07728230953216553,-0.10974550247192383,-0.0798807144165039,0.9739925861358643,7.726398944854736,5.96024227142334
1703342759905,0.01954767294228077,0.12003492563962936,0.02611446939408779,-0.07728230953216553,-0.10974550247192383,-0.0798807144165039,0.9739925861358643,7.726398944854736,5.96024227142334
1703342760003,0.01954767294228077,0.12003492563962936,0.02611446939408779,-0.07728230953216553,-0.10974550247192383,-0.0798807144165039,0.9739925861358643,7.726398944854736,5.96024227142334
1703342760100,0.01954767294228077,0.12003492563962936,0.02611446939408779,-0.07728230953216553,-0.10974550247192383,-0.0798807144165039,0.9739925861358643,7.726398944854736,5.96024227142334
1703342760198,0.01954767294228077,0.12003492563962936,0.02611446939408779,-0.07728230953216553,-0.10974550247192383,-0.0798807144165039,0.9739925861358643,7.726398944854736,5.96024227142334
1703342760296,0.01954767294228077,0.12003492563962936,0.02611446939408779,-0.07728230953216553,-0.10974550247192383,-0.0798807144165039,0.9739925861358643,7.726398944854736,5.96024227142334
1703342760394,0.01954767294228077,0.12003492563962936,0.02611446939408779,-0.07728230953216553,-0.10974550247192383,-0.0798807144165039,0.9739925861358643,7.726398944854736,5.96024227142334
1703342760490,0.01954767294228077,0.12003492563962936,0.02611446939408779,-0.07728230953216553,-0.10974550247192383,-0.0798807144165039,0.9739925861358643,7.726398944854736,5.96024227142334
1703342760589,0.01954767294228077,0.12003492563962936,0.02611446939408779,-0.07728230953216553,-0.10974550247192383,-0.0798807144165039,0.9739925861358643,7.726398944854736,5.96024227142334
1703342760686,0.01954767294228077,0.12003492563962936,0.02611446939408779,-0.07728230953216553,-0.10974550247192383,-0.0798807144165039,0.9739925861358643,7.726398944854736,5.96024227142334
1703342760784,0.01954767294228077,0.12003492563962936,0.02611446939408779,-0.07728230953216553,-0.10974550247192383,-0.0798807144165039,0.9739925861358643,7.726398944854736,5.96024227142334
1703342760881,0.01954767294228077,0.12003492563962936,0.02611446939408779,-0.07728230953216553,-0.10974550247192383,-0.0798807144165039,0.9739925861358643,7.726398944854736,5.96024227142334
1703342760979,0.01954767294228077,0.12003492563962936,0.02611446939408779,-0.07728230953216553,-0.10974550247192383,-0.0798807144165039,0.9739925861358643,7.726398944854736,5.96024227142334
1703342761077,0.01954767294228077,0.12003492563962936,0.02611446939408779,-0.07728230953216553,-0.10974550247192383,-0.0798807144165039,0.9739925861358643,7.726398944854736,5.96024227142334
1703342761174,0.01954767294228077,0.12003492563962936,0.02611446939408779,-0.07728230953216553,-0.10974550247192383,-0.0798807144165039,0.9739925861358643,7.726398944854736,5.96024227142334
1703342761272,0.01954767294228077,0.12003492563962936,0.02611446939408779,-0.07728230953216553,-0.10974550247192383,-0.0798807144165039,0.9739925861358643,7.726398944854736,5.96024227142334
1703342761369,0.01954767294228077,0.12003492563962936,0.02611446939408779,-0.07728230953216553,-0.10974550247192383,-0.0798807144165039,0.9739925861358643,7.726398944854736,5.96024227142334
1703342761467,0.01954767294228077,0.12003492563962936,0.02611446939408779,-0.07728230953216553,-0.10974550247192383,-0.0798807144165039,0.9739925861358643,7.726398944854736,5.96024227142334
1703342761565,0.01954767294228077,0.12003492563962936,0.02611446939408779,-0.07728230953216553,-0.10974550247192383,-0.0798807144165039,0.9739925861358643,7.726398944854736,5.96024227142334
1703342761662,0.01954767294228077,0.12003492563962936,0.02611446939408779,-0.07728230953216553,-0.10974550247192383,-0.0798807144165039,0.9739925861358643,7.726398944854736,5.96024227142334
1703342761760,0.01954767294228077,0.12003492563962936,0.02611446939408779,-0.07728230953216553,-0.10974550247192383,-0.0798807144165039,0.9739925861358643,7.726398944854736,5.96024227142334
1703342761857,0.01954767294228077,0.12003492563962936,0.02611446939408779,-0.07728230953216553,-0.10974550247192383,-0.0798807144165039,0.9739925861358643,7.726398944854736,5.96024227142334
1703342761956,0.01954767294228077,0.12003492563962936,0.02611446939408779,-0.07728230953216553,-0.10974550247192383,-0.0798807144165039,0.9739925861358643,7.726398944854736,5.96024227142334
1703342762053,0.01954767294228077,0.12003492563962936,0.02611446939408779,-0.07728230953216553,-0.10974550247192383,-0.0798807144165039,0.9739925861358643,7.726398944854736,5.96024227142334
1703342762150,0.01954767294228077,0.12003492563962936,0.02611446939408779,-0.07728230953216553,-0.10974550247192383,-0.0798807144165039,0.9739925861358643,7.726398944854736,5.96024227142334
1703342762248,0.01954767294228077,0.12003492563962936,0.02611446939408779,-0.07728230953216553,-0.10974550247192383,-0.0798807144165039,0.9739925861358643,7.726398944854736,5.96024227142334
1703342762345,0.01954767294228077,0.12003492563962936,0.02611446939408779,-0.07728230953216553,-0.10974550247192383,-0.0798807144165039,0.9739925861358643,7.726398944854736,5.96024227142334
1703342762444,0.01954767294228077,0.12003492563962936,0.02611446939408779,-0.07728230953216553,-0.10974550247192383,-0.0798807144165039,0.9739925861358643,7.726398944854736,5.96024227142334
1703342762541,0.01954767294228077,0.12003492563962936,0.02611446939408779,-0.07728230953216553,-0.10974550247192383,-0.0798807144165039,0.9739925861358643,7.726398944854736,5.96024227142334
1703342762639,0.01954767294228077,0.12003492563962936,0.02611446939408779,-0.07728230953216553,-0.10974550247192383,-0.0798807144165039,0.9739925861358643,7.726398944854736,5.96024227142334
1703342762737,0.01954767294228077,0.12003492563962936,0.02611446939408779,-0.07728230953216553,-0.10974550247192383,-0.0798807144165039,0.9739925861358643,7.726398944854736,5.96024227142334
1703342762834,0.01954767294228077,0.12003492563962936,0.02611446939408779,-0.07728230953216553,-0.10974550247192383,-0.0798807144165039,0.9739925861358643,7.726398944854736,5.96024227142334
1703342762932,0.01954767294228077,0.12003492563962936,0.02611446939408779,-0.07728230953216553,-0.10974550247192383,-0.0798807144165039,0.9739925861358643,7.726398944854736,5.96024227142334
1703342763029,0.01954767294228077,0.12003492563962936,0.02611446939408779,-0.07728230953216553,-0.10974550247192383,-0.0798807144165039,0.9739925861358643,7.726398944854736,5.96024227142334
1703342763127,0.01954767294228077,0.12003492563962936,0.02611446939408779,-0.07728230953216553,-0.10974550247192383,-0.0798807144165039,0.9739925861358643,7.726398944854736,5.96024227142334
1703342763225,0.01954767294228077,0.12003492563962936,0.02611446939408779,-0.07728230953216553,-0.10974550247192383,-0.0798807144165039,0.9739925861358643,7.726398944854736,5.96024227142334
1703342763322,0.01954767294228077,0.12003492563962936,0.02611446939408779,-0.07728230953216553,-0.10974550247192383,-0.0798807144165039,0.9739925861358643,7.726398944854736,5.96024227142334
1703342763420,0.01954767294228077,0.12003492563962936,0.02611446939408779,-0.07728230953216553,-0.10974550247192383,-0.0798807144165039,0.9739925861358643,7.726398944854736,5.96024227142334
1703342763517,0.01954767294228077,0.12003492563962936,0.02611446939408779,-0.07728230953216553,-0.10974550247192383,-0.0798807144165039,0.9739925861358643,7.726398944854736,5.96024227142334
1703342763615,0.01954767294228077,0.12003492563962936,0.02611446939408779,-0.07728230953216553,-0.10974550247192383,-0.0798807144165039,0.9739925861358643,7.726398944854736,5.96024227142334
1703342763712,0.01954767294228077,0.12003492563962936,0.02611446939408779,-0.07728230953216553,-0.10974550247192383,-0.0798807144165039,0.9739925861358643,7.726398944854736,5.96024227142334
1703342763810,0.01954767294228077,0.12003492563962936,0.02611446939408779,-0.07728230953216553,-0.10974550247192383,-0.0798807144165039,0.9739925861358643,7.726398944854736,5.96024227142334
1703342763908,0.01954767294228077,0.12003492563962936,0.02611446939408779,-0.07728230953216553,-0.10974550247192383,-0.0798807144165039,0.9739925861358643,7.726398944854736,5.96024227142334
1703342764005,0.01954767294228077,0.12003492563962936,0.02611446939408779,-0.07728230953216553,-0.10974550247192383,-0.0798807144165039,0.9739925861358643,7.726398944854736,5.96024227142334
1703342764103,0.01954767294228077,0.12003492563962936,0.02611446939408779,-0.07728230953216553,-0.10974550247192383,-0.0798807144165039,0.9739925861358643,7.726398944854736,5.96024227142334
1703342764200,0.01954767294228077,0.12003492563962936,0.02611446939408779,-0.07728230953216553,-0.10974550247192383,-0.0798807144165039,0.9739925861358643,7.726398944854736,5.96024227142334
1703342764298,0.01954767294228077,0.12003492563962936,0.02611446939408779,-0.07728230953216553,-0.10974550247192383,-0.0798807144165039,0.9739925861358643,7.726398944854736,5.96024227142334
1703342764396,0.01954767294228077,0.12003492563962936,0.02611446939408779,-0.07728230953216553,-0.10974550247192383,-0.0798807144165039,0.9739925861358643,7.726398944854736,5.96024227142334
1703342764493,0.01954767294228077,0.12003492563962936,0.02611446939408779,-0.07728230953216553,-0.10974550247192383,-0.0798807144165039,0.9739925861358643,7.726398944854736,5.96024227142334
1703342764591,0.01954767294228077,0.12003492563962936,0.02611446939408779,-0.07728230953216553,-0.10974550247192383,-0.0798807144165039,0.9739925861358643,7.726398944854736,5.96024227142334
1703342764689,0.01954767294228077,0.12003492563962936,0.02611446939408779,-0.07728230953216553,-0.10974550247192383,-0.0798807144165039,0.9739925861358643,7.726398944854736,5.96024227142334
1703342764786,0.01954767294228077,0.12003492563962936,0.02611446939408779,-0.07728230953216553,-0.10974550247192383,-0.0798807144165039,0.9739925861358643,7.726398944854736,5.96024227142334
1703342764884,0.01954767294228077,0.12003492563962936,0.02611446939408779,-0.07728230953216553,-0.10974550247192383,-0.0798807144165039,0.9739925861358643,7.726398944854736,5.96024227142334
1703342764982,0.01954767294228077,0.12003492563962936,0.02611446939408779,-0.07728230953216553,-0.10974550247192383,-0.0798807144165039,0.9739925861358643,7.726398944854736,5.96024227142334
1703342765079,0.01954767294228077,0.12003492563962936,0.02611446939408779,-0.07728230953216553,-0.10974550247192383,-0.0798807144165039,0.9739925861358643,7.726398944854736,5.96024227142334
1703342765176,0.01954767294228077,0.12003492563962936,0.02611446939408779,-0.07728230953216553,-0.10974550247192383,-0.0798807144165039,0.9739925861358643,7.726398944854736,5.96024227142334
1703342765275,0.01954767294228077,0.12003492563962936,0.02611446939408779,-0.07728230953216553,-0.10974550247192383,-0.0798807144165039,0.9739925861358643,7.726398944854736,5.96024227142334
1703342765372,0.01954767294228077,0.12003492563962936,0.02611446939408779,-0.07728230953216553,-0.10974550247192383,-0.0798807144165039,0.9739925861358643,7.726398944854736,5.96024227142334
1703342765470,0.01954767294228077,0.12003492563962936,0.02611446939408779,-0.07728230953216553,-0.10974550247192383,-0.0798807144165039,0.9739925861358643,7.726398944854736,5.96024227142334
1703342765567,0.01954767294228077,0.12003492563962936,0.02611446939408779,-0.07728230953216553,-0.10974550247192383,-0.0798807144165039,0.9739925861358643,7.726398944854736,5.96024227142334
1703342765665,0.01954767294228077,0.12003492563962936,0.02611446939408779,-0.07728230953216553,-0.10974550247192383,-0.0798807144165039,0.9739925861358643,7.726398944854736,5.96024227142334
1703342765763,0.01954767294228077,0.12003492563962936,0.02611446939408779,-0.07728230953216553,-0.10974550247192383,-0.0798807144165039,0.9739925861358643,7.726398944854736,5.96024227142334
1703342765860,0.01954767294228077,0.12003492563962936,0.02611446939408779,-0.07728230953216553,-0.10974550247192383,-0.0798807144165039,0.9739925861358643,7.726398944854736,5.96024227142334
1703342765958,0.01954767294228077,0.12003492563962936,0.02611446939408779,-0.07728230953216553,-0.10974550247192383,-0.0798807144165039,0.9739925861358643,7.726398944854736,5.96024227142334
1703342766055,0.01954767294228077,0.12003492563962936,0.02611446939408779,-0.07728230953216553,-0.10974550247192383,-0.0798807144165039,0.9739925861358643,7.726398944854736,5.96024227142334
1703342766153,0.01954767294228077,0.12003492563962936,0.02611446939408779,-0.07728230953216553,-0.10974550247192383,-0.0798807144165039,0.9739925861358643,7.726398944854736,5.96024227142334
1703342766251,0.01954767294228077,0.12003492563962936,0.02611446939408779,-0.07728230953216553,-0.10974550247192383,-0.0798807144165039,0.9739925861358643,7.726398944854736,5.96024227142334
1703342766348,0.01954767294228077,0.12003492563962936,0.02611446939408779,-0.07728230953216553,-0.10974550247192383,-0.0798807144165039,0.9739925861358643,7.726398944854736,5.96024227142334
1703342766446,0.01954767294228077,0.12003492563962936,0.02611446939408779,-0.07728230953216553,-0.10974550247192383,-0.0798807144165039,0.9739925861358643,7.726398944854736,5.96024227142334
1703342766544,0.01954767294228077,0.12003492563962936,0.02611446939408779,-0.07728230953216553,-0.10974550247192383,-0.0798807144165039,0.9739925861358643,7.726398944854736,5.96024227142334
1703342766641,0.01954767294228077,0.12003492563962936,0.02611446939408779,-0.07728230953216553,-0.10974550247192383,-0.0798807144165039,0.9739925861358643,7.726398944854736,5.96024227142334
1703342766738,0.01954767294228077,0.12003492563962936,0.02611446939408779,-0.07728230953216553,-0.10974550247192383,-0.0798807144165039,0.9739925861358643,7.726398944854736,5.96024227142334
1703342766837,0.01954767294228077,0.12003492563962936,0.02611446939408779,-0.07728230953216553,-0.10974550247192383,-0.0798807144165039,0.9739925861358643,7.726398944854736,5.96024227142334
1703342766934,0.01954767294228077,0.12003492563962936,0.02611446939408779,-0.07728230953216553,-0.10974550247192383,-0.0798807144165039,0.9739925861358643,7.726398944854736,5.96024227142334
1703342767032,0.01954767294228077,0.12003492563962936,0.02611446939408779,-0.07728230953216553,-0.10974550247192383,-0.0798807144165039,0.9739925861358643,7.726398944854736,5.96024227142334
1703342767129,0.01954767294228077,0.12003492563962936,0.02611446939408779,-0.07728230953216553,-0.10974550247192383,-0.0798807144165039,0.9739925861358643,7.726398944854736,5.96024227142334
1703342767227,0.01954767294228077,0.12003492563962936,0.02611446939408779,-0.07728230953216553,-0.10974550247192383,-0.0798807144165039,0.9739925861358643,7.726398944854736,5.96024227142334
1703342767324,0.01954767294228077,0.12003492563962936,0.02611446939408779,-0.07728230953216553,-0.10974550247192383,-0.0798807144165039,0.9739925861358643,7.726398944854736,5.96024227142334
1703342767422,0.01954767294228077,0.12003492563962936,0.02611446939408779,-0.07728230953216553,-0.10974550247192383,-0.0798807144165039,0.9739925861358643,7.726398944854736,5.96024227142334
1703342767519,0.01954767294228077,0.12003492563962936,0.02611446939408779,-0.07728230953216553,-0.10974550247192383,-0.0798807144165039,0.9739925861358643,7.726398944854736,5.96024227142334
1703342767618,0.01954767294228077,0.12003492563962936,0.02611446939408779,-0.07728230953216553,-0.10974550247192383,-0.0798807144165039,0.9739925861358643,7.726398944854736,5.96024227142334
1703342767715,0.01954767294228077,0.12003492563962936,0.02611446939408779,-0.07728230953216553,-0.10974550247192383,-0.0798807144165039,0.9739925861358643,7.726398944854736,5.96024227142334
1703342767813,0.01954767294228077,0.12003492563962936,0.02611446939408779,-0.07728230953216553,-0.10974550247192383,-0.0798807144165039,0.9739925861358643,7.726398944854736,5.96024227142334
1703342767910,0.01954767294228077,0.12003492563962936,0.02611446939408779,-0.07728230953216553,-0.10974550247192383,-0.0798807144165039,0.9739925861358643,7.726398944854736,5.96024227142334
1703342768007,0.01954767294228077,0.12003492563962936,0.02611446939408779,-0.07728230953216553,-0.10974550247192383,-0.0798807144165039,0.9739925861358643,7.726398944854736,5.96024227142334
1703342768105,0.01954767294228077,0.12003492563962936,0.02611446939408779,-0.07728230953216553,-0.10974550247192383,-0.0798807144165039,0.9739925861358643,7.726398944854736,5.96024227142334
1703342768203,0.01954767294228077,0.12003492563962936,0.02611446939408779,-0.07728230953216553,-0.10974550247192383,-0.0798807144165039,0.9739925861358643,7.726398944854736,5.96024227142334
1703342768300,0.01954767294228077,0.12003492563962936,0.02611446939408779,-0.07728230953216553,-0.10974550247192383,-0.0798807144165039,0.9739925861358643,7.726398944854736,5.96024227142334
1703342768398,0.01954767294228077,0.12003492563962936,0.02611446939408779,-0.07728230953216553,-0.10974550247192383,-0.0798807144165039,0.9739925861358643,7.726398944854736,5.96024227142334
1703342768496,0.01954767294228077,0.12003492563962936,0.02611446939408779,-0.07728230953216553,-0.10974550247192383,-0.0798807144165039,0.9739925861358643,7.726398944854736,5.96024227142334
1703342768691,0.01954767294228077,0.12003492563962936,0.02611446939408779,-0.07728230953216553,-0.10974550247192383,-0.0798807144165039,0.9739925861358643,7.726398944854736,5.96024227142334
1703342768691,0.01954767294228077,0.12003492563962936,0.02611446939408779,-0.07728230953216553,-0.10974550247192383,-0.0798807144165039,0.9739925861358643,7.726398944854736,5.96024227142334
1703342768789,0.01954767294228077,0.12003492563962936,0.02611446939408779,-0.07728230953216553,-0.10974550247192383,-0.0798807144165039,0.9739925861358643,7.726398944854736,5.96024227142334
1703342768886,0.01954767294228077,0.12003492563962936,0.02611446939408779,-0.07728230953216553,-0.10974550247192383,-0.0798807144165039,0.9739925861358643,7.726398944854736,5.96024227142334
1703342768984,0.01954767294228077,0.12003492563962936,0.02611446939408779,-0.07728230953216553,-0.10974550247192383,-0.0798807144165039,0.9739925861358643,7.726398944854736,5.96024227142334
1703342769082,0.01954767294228077,0.12003492563962936,0.02611446939408779,-0.07728230953216553,-0.10974550247192383,-0.0798807144165039,0.9739925861358643,7.726398944854736,5.96024227142334
1703342769179,0.01954767294228077,0.12003492563962936,0.02611446939408779,-0.07728230953216553,-0.10974550247192383,-0.0798807144165039,0.9739925861358643,7.726398944854736,5.96024227142334
1703342769277,0.01954767294228077,0.12003492563962936,0.02611446939408779,-0.07728230953216553,-0.10974550247192383,-0.0798807144165039,0.9739925861358643,7.726398944854736,5.96024227142334
1703342769374,0.01954767294228077,0.12003492563962936,0.02611446939408779,-0.07728230953216553,-0.10974550247192383,-0.0798807144165039,0.9739925861358643,7.726398944854736,5.96024227142334
1703342769472,0.01954767294228077,0.12003492563962936,0.02611446939408779,-0.07728230953216553,-0.10974550247192383,-0.0798807144165039,0.9739925861358643,7.726398944854736,5.96024227142334
1703342769570,0.01954767294228077,0.12003492563962936,0.02611446939408779,-0.07728230953216553,-0.10974550247192383,-0.0798807144165039,0.9739925861358643,7.726398944854736,5.96024227142334
1703342769667,0.01954767294228077,0.12003492563962936,0.02611446939408779,-0.07728230953216553,-0.10974550247192383,-0.0798807144165039,0.9739925861358643,7.726398944854736,5.96024227142334
1703342769765,0.01954767294228077,0.12003492563962936,0.02611446939408779,-0.07728230953216553,-0.10974550247192383,-0.0798807144165039,0.9739925861358643,7.726398944854736,5.96024227142334
1703342769862,0.01954767294228077,0.12003492563962936,0.02611446939408779,-0.07728230953216553,-0.10974550247192383,-0.0798807144165039,0.9739925861358643,7.726398944854736,5.96024227142334
1703342769960,0.01954767294228077,0.12003492563962936,0.02611446939408779,-0.07728230953216553,-0.10974550247192383,-0.0798807144165039,0.9739925861358643,7.726398944854736,5.96024227142334
1703342770058,0.01954767294228077,0.12003492563962936,0.02611446939408779,-0.07728230953216553,-0.10974550247192383,-0.0798807144165039,0.9739925861358643,7.726398944854736,5.96024227142334
1703342770156,0.01954767294228077,0.12003492563962936,0.02611446939408779,-0.07728230953216553,-0.10974550247192383,-0.0798807144165039,0.9739925861358643,7.726398944854736,5.96024227142334
1703342770254,0.01954767294228077,0.12003492563962936,0.02611446939408779,-0.07728230953216553,-0.10974550247192383,-0.0798807144165039,0.9739925861358643,7.726398944854736,5.96024227142334
1703342770350,0.01954767294228077,0.12003492563962936,0.02611446939408779,-0.07728230953216553,-0.10974550247192383,-0.0798807144165039,0.9739925861358643,7.726398944854736,5.96024227142334
1703342770448,0.01954767294228077,0.12003492563962936,0.02611446939408779,-0.07728230953216553,-0.10974550247192383,-0.0798807144165039,0.9739925861358643,7.726398944854736,5.96024227142334
1703342770546,0.01954767294228077,0.12003492563962936,0.02611446939408779,-0.07728230953216553,-0.10974550247192383,-0.0798807144165039,0.9739925861358643,7.726398944854736,5.96024227142334
1703342770643,0.01954767294228077,0.12003492563962936,0.02611446939408779,-0.07728230953216553,-0.10974550247192383,-0.0798807144165039,0.9739925861358643,7.726398944854736,5.96024227142334
1703342770742,0.01954767294228077,0.12003492563962936,0.02611446939408779,-0.07728230953216553,-0.10974550247192383,-0.0798807144165039,0.9739925861358643,7.726398944854736,5.96024227142334
1703342770839,0.01954767294228077,0.12003492563962936,0.02611446939408779,-0.07728230953216553,-0.10974550247192383,-0.0798807144165039,0.9739925861358643,7.726398944854736,5.96024227142334
1703342770937,0.01954767294228077,0.12003492563962936,0.02611446939408779,-0.07728230953216553,-0.10974550247192383,-0.0798807144165039,0.9739925861358643,7.726398944854736,5.96024227142334
1703342771034,0.01954767294228077,0.12003492563962936,0.02611446939408779,-0.07728230953216553,-0.10974550247192383,-0.0798807144165039,0.9739925861358643,7.726398944854736,5.96024227142334
1703342771131,0.01954767294228077,0.12003492563962936,0.02611446939408779,-0.07728230953216553,-0.10974550247192383,-0.0798807144165039,0.9739925861358643,7.726398944854736,5.96024227142334
1703342771230,0.01954767294228077,0.12003492563962936,0.02611446939408779,-0.07728230953216553,-0.10974550247192383,-0.0798807144165039,0.9739925861358643,7.726398944854736,5.96024227142334
1703342771327,0.01954767294228077,0.12003492563962936,0.02611446939408779,-0.07728230953216553,-0.10974550247192383,-0.0798807144165039,0.9739925861358643,7.726398944854736,5.96024227142334
1703342771425,0.01954767294228077,0.12003492563962936,0.02611446939408779,-0.07728230953216553,-0.10974550247192383,-0.0798807144165039,0.9739925861358643,7.726398944854736,5.96024227142334
1703342771523,0.01954767294228077,0.12003492563962936,0.02611446939408779,-0.07728230953216553,-0.10974550247192383,-0.0798807144165039,0.9739925861358643,7.726398944854736,5.96024227142334
1703342771620,0.01954767294228077,0.12003492563962936,0.02611446939408779,-0.07728230953216553,-0.10974550247192383,-0.0798807144165039,0.9739925861358643,7.726398944854736,5.96024227142334
1703342771718,0.01954767294228077,0.12003492563962936,0.02611446939408779,-0.07728230953216553,-0.10974550247192383,-0.0798807144165039,0.9739925861358643,7.726398944854736,5.96024227142334
1703342771815,0.01954767294228077,0.12003492563962936,0.02611446939408779,-0.07728230953216553,-0.10974550247192383,-0.0798807144165039,0.9739925861358643,7.726398944854736,5.96024227142334
1703342771913,0.01954767294228077,0.12003492563962936,0.02611446939408779,-0.07728230953216553,-0.10974550247192383,-0.0798807144165039,0.9739925861358643,7.726398944854736,5.96024227142334
1703342772011,0.01954767294228077,0.12003492563962936,0.02611446939408779,-0.07728230953216553,-0.10974550247192383,-0.0798807144165039,0.9739925861358643,7.726398944854736,5.96024227142334
1703342772108,0.01954767294228077,0.12003492563962936,0.02611446939408779,-0.07728230953216553,-0.10974550247192383,-0.0798807144165039,0.9739925861358643,7.726398944854736,5.96024227142334
1703342772205,0.01954767294228077,0.12003492563962936,0.02611446939408779,-0.07728230953216553,-0.10974550247192383,-0.0798807144165039,0.9739925861358643,7.726398944854736,5.96024227142334
1703342772303,0.01954767294228077,0.12003492563962936,0.02611446939408779,-0.07728230953216553,-0.10974550247192383,-0.0798807144165039,0.9739925861358643,7.726398944854736,5.96024227142334
1703342772400,0.01954767294228077,0.12003492563962936,0.02611446939408779,-0.07728230953216553,-0.10974550247192383,-0.0798807144165039,0.9739925861358643,7.726398944854736,5.96024227142334
1703342772499,0.01954767294228077,0.12003492563962936,0.02611446939408779,-0.07728230953216553,-0.10974550247192383,-0.0798807144165039,0.9739925861358643,7.726398944854736,5.96024227142334
1703342772596,0.01954767294228077,0.12003492563962936,0.02611446939408779,-0.07728230953216553,-0.10974550247192383,-0.0798807144165039,0.9739925861358643,7.726398944854736,5.96024227142334
1703342772693,0.01954767294228077,0.12003492563962936,0.02611446939408779,-0.07728230953216553,-0.10974550247192383,-0.0798807144165039,0.9739925861358643,7.726398944854736,5.96024227142334
1703342772791,0.01954767294228077,0.12003492563962936,0.02611446939408779,-0.07728230953216553,-0.10974550247192383,-0.0798807144165039,0.9739925861358643,7.726398944854736,5.96024227142334
1703342772889,0.01954767294228077,0.12003492563962936,0.02611446939408779,-0.07728230953216553,-0.10974550247192383,-0.0798807144165039,0.9739925861358643,7.726398944854736,5.96024227142334
1703342772987,0.01954767294228077,0.12003492563962936,0.02611446939408779,-0.07728230953216553,-0.10974550247192383,-0.0798807144165039,0.9739925861358643,7.726398944854736,5.96024227142334
1703342773084,0.01954767294228077,0.12003492563962936,0.02611446939408779,-0.07728230953216553,-0.10974550247192383,-0.0798807144165039,0.9739925861358643,7.726398944854736,5.96024227142334
1703342773182,0.01954767294228077,0.12003492563962936,0.02611446939408779,-0.07728230953216553,-0.10974550247192383,-0.0798807144165039,0.9739925861358643,7.726398944854736,5.96024227142334
1703342773279,0.01954767294228077,0.12003492563962936,0.02611446939408779,-0.07728230953216553,-0.10974550247192383,-0.0798807144165039,0.9739925861358643,7.726398944854736,5.96024227142334
1703342773377,0.01954767294228077,0.12003492563962936,0.02611446939408779,-0.07728230953216553,-0.10974550247192383,-0.0798807144165039,0.9739925861358643,7.726398944854736,5.96024227142334
1703342773474,0.01954767294228077,0.12003492563962936,0.02611446939408779,-0.07728230953216553,-0.10974550247192383,-0.0798807144165039,0.9739925861358643,7.726398944854736,5.96024227142334
1703342773573,0.01954767294228077,0.12003492563962936,0.02611446939408779,-0.07728230953216553,-0.10974550247192383,-0.0798807144165039,0.9739925861358643,7.726398944854736,5.96024227142334
1703342773670,0.01954767294228077,0.12003492563962936,0.02611446939408779,-0.07728230953216553,-0.10974550247192383,-0.0798807144165039,0.9739925861358643,7.726398944854736,5.96024227142334
1703342773768,0.01954767294228077,0.12003492563962936,0.02611446939408779,-0.07728230953216553,-0.10974550247192383,-0.0798807144165039,0.9739925861358643,7.726398944854736,5.96024227142334
1703342773865,0.01954767294228077,0.12003492563962936,0.02611446939408779,-0.07728230953216553,-0.10974550247192383,-0.0798807144165039,0.9739925861358643,7.726398944854736,5.96024227142334
1703342773963,0.01954767294228077,0.12003492563962936,0.02611446939408779,-0.07728230953216553,-0.10974550247192383,-0.0798807144165039,0.9739925861358643,7.726398944854736,5.96024227142334
1703342774060,0.01954767294228077,0.12003492563962936,0.02611446939408779,-0.07728230953216553,-0.10974550247192383,-0.0798807144165039,0.9739925861358643,7.726398944854736,5.96024227142334
1703342774158,0.01954767294228077,0.12003492563962936,0.02611446939408779,-0.07728230953216553,-0.10974550247192383,-0.0798807144165039,0.9739925861358643,7.726398944854736,5.96024227142334
1703342774256,0.01954767294228077,0.12003492563962936,0.02611446939408779,-0.07728230953216553,-0.10974550247192383,-0.0798807144165039,0.9739925861358643,7.726398944854736,5.96024227142334
1703342774353,0.01954767294228077,0.12003492563962936,0.02611446939408779,-0.07728230953216553,-0.10974550247192383,-0.0798807144165039,0.9739925861358643,7.726398944854736,5.96024227142334
1703342774451,0.01954767294228077,0.12003492563962936,0.02611446939408779,-0.07728230953216553,-0.10974550247192383,-0.0798807144165039,0.9739925861358643,7.726398944854736,5.96024227142334
1703342774646,0.01954767294228077,0.12003492563962936,0.02611446939408779,-0.07728230953216553,-0.10974550247192383,-0.0798807144165039,0.9739925861358643,7.726398944854736,5.96024227142334
1703342774646,0.01954767294228077,0.12003492563962936,0.02611446939408779,-0.07728230953216553,-0.10974550247192383,-0.0798807144165039,0.9739925861358643,7.726398944854736,5.96024227142334
1703342774744,0.01954767294228077,0.12003492563962936,0.02611446939408779,-0.07728230953216553,-0.10974550247192383,-0.0798807144165039,0.9739925861358643,7.726398944854736,5.96024227142334
1703342774842,0.01954767294228077,0.12003492563962936,0.02611446939408779,-0.07728230953216553,-0.10974550247192383,-0.0798807144165039,0.9739925861358643,7.726398944854736,5.96024227142334
1703342774939,0.01954767294228077,0.12003492563962936,0.02611446939408779,-0.07728230953216553,-0.10974550247192383,-0.0798807144165039,0.9739925861358643,7.726398944854736,5.96024227142334
1703342775037,0.01954767294228077,0.12003492563962936,0.02611446939408779,-0.07728230953216553,-0.10974550247192383,-0.0798807144165039,0.9739925861358643,7.726398944854736,5.96024227142334
1703342775134,0.01954767294228077,0.12003492563962936,0.02611446939408779,-0.07728230953216553,-0.10974550247192383,-0.0798807144165039,0.9739925861358643,7.726398944854736,5.96024227142334
1703342775232,0.01954767294228077,0.12003492563962936,0.02611446939408779,-0.07728230953216553,-0.10974550247192383,-0.0798807144165039,0.9739925861358643,7.726398944854736,5.96024227142334
1703342775330,0.01954767294228077,0.12003492563962936,0.02611446939408779,-0.07728230953216553,-0.10974550247192383,-0.0798807144165039,0.9739925861358643,7.726398944854736,5.96024227142334
1703342775427,0.01954767294228077,0.12003492563962936,0.02611446939408779,-0.07728230953216553,-0.10974550247192383,-0.0798807144165039,0.9739925861358643,7.726398944854736,5.96024227142334
1703342775525,0.01954767294228077,0.12003492563962936,0.02611446939408779,-0.07728230953216553,-0.10974550247192383,-0.0798807144165039,0.9739925861358643,7.726398944854736,5.96024227142334
1703342775623,0.01954767294228077,0.12003492563962936,0.02611446939408779,-0.07728230953216553,-0.10974550247192383,-0.0798807144165039,0.9739925861358643,7.726398944854736,5.96024227142334
1703342775720,0.01954767294228077,0.12003492563962936,0.02611446939408779,-0.07728230953216553,-0.10974550247192383,-0.0798807144165039,0.9739925861358643,7.726398944854736,5.96024227142334
1703342775817,0.01954767294228077,0.12003492563962936,0.02611446939408779,-0.07728230953216553,-0.10974550247192383,-0.0798807144165039,0.9739925861358643,7.726398944854736,5.96024227142334
1703342775915,0.01954767294228077,0.12003492563962936,0.02611446939408779,-0.07728230953216553,-0.10974550247192383,-0.0798807144165039,0.9739925861358643,7.726398944854736,5.96024227142334
1703342776012,0.01954767294228077,0.12003492563962936,0.02611446939408779,-0.07728230953216553,-0.10974550247192383,-0.0798807144165039,0.9739925861358643,7.726398944854736,5.96024227142334
1703342776110,0.01954767294228077,0.12003492563962936,0.02611446939408779,-0.07728230953216553,-0.10974550247192383,-0.0798807144165039,0.9739925861358643,7.726398944854736,5.96024227142334
1703342776208,0.01954767294228077,0.12003492563962936,0.02611446939408779,-0.07728230953216553,-0.10974550247192383,-0.0798807144165039,0.9739925861358643,7.726398944854736,5.96024227142334
1703342776305,0.01954767294228077,0.12003492563962936,0.02611446939408779,-0.07728230953216553,-0.10974550247192383,-0.0798807144165039,0.9739925861358643,7.726398944854736,5.96024227142334
1703342776403,0.01954767294228077,0.12003492563962936,0.02611446939408779,-0.07728230953216553,-0.10974550247192383,-0.0798807144165039,0.9739925861358643,7.726398944854736,5.96024227142334
1703342776501,0.01954767294228077,0.12003492563962936,0.02611446939408779,-0.07728230953216553,-0.10974550247192383,-0.0798807144165039,0.9739925861358643,7.726398944854736,5.96024227142334
1703342776598,0.01954767294228077,0.12003492563962936,0.02611446939408779,-0.07728230953216553,-0.10974550247192383,-0.0798807144165039,0.9739925861358643,7.726398944854736,5.96024227142334
1703342776696,0.01954767294228077,0.12003492563962936,0.02611446939408779,-0.07728230953216553,-0.10974550247192383,-0.0798807144165039,0.9739925861358643,7.726398944854736,5.96024227142334
1703342776794,0.01954767294228077,0.12003492563962936,0.02611446939408779,-0.07728230953216553,-0.10974550247192383,-0.0798807144165039,0.9739925861358643,7.726398944854736,5.96024227142334
1703342776892,0.01954767294228077,0.12003492563962936,0.02611446939408779,-0.07728230953216553,-0.10974550247192383,-0.0798807144165039,0.9739925861358643,7.726398944854736,5.96024227142334
1703342776989,0.01954767294228077,0.12003492563962936,0.02611446939408779,-0.07728230953216553,-0.10974550247192383,-0.0798807144165039,0.9739925861358643,7.726398944854736,5.96024227142334
1703342777086,0.01954767294228077,0.12003492563962936,0.02611446939408779,-0.07728230953216553,-0.10974550247192383,-0.0798807144165039,0.9739925861358643,7.726398944854736,5.96024227142334
1703342777184,0.01954767294228077,0.12003492563962936,0.02611446939408779,-0.07728230953216553,-0.10974550247192383,-0.0798807144165039,0.9739925861358643,7.726398944854736,5.96024227142334
1703342777282,0.01954767294228077,0.12003492563962936,0.02611446939408779,-0.07728230953216553,-0.10974550247192383,-0.0798807144165039,0.9739925861358643,7.726398944854736,5.96024227142334
1703342777380,0.01954767294228077,0.12003492563962936,0.02611446939408779,-0.07728230953216553,-0.10974550247192383,-0.0798807144165039,0.9739925861358643,7.726398944854736,5.96024227142334
1703342777478,0.01954767294228077,0.12003492563962936,0.02611446939408779,-0.07728230953216553,-0.10974550247192383,-0.0798807144165039,0.9739925861358643,7.726398944854736,5.96024227142334
1703342777574,0.01954767294228077,0.12003492563962936,0.02611446939408779,-0.07728230953216553,-0.10974550247192383,-0.0798807144165039,0.9739925861358643,7.726398944854736,5.96024227142334
1703342777672,0.01954767294228077,0.12003492563962936,0.02611446939408779,-0.07728230953216553,-0.10974550247192383,-0.0798807144165039,0.9739925861358643,7.726398944854736,5.96024227142334
1703342777770,0.01954767294228077,0.12003492563962936,0.02611446939408779,-0.07728230953216553,-0.10974550247192383,-0.0798807144165039,0.9739925861358643,7.726398944854736,5.96024227142334
1703342777867,0.01954767294228077,0.12003492563962936,0.02611446939408779,-0.07728230953216553,-0.10974550247192383,-0.0798807144165039,0.9739925861358643,7.726398944854736,5.96024227142334
1703342777965,0.01954767294228077,0.12003492563962936,0.02611446939408779,-0.07728230953216553,-0.10974550247192383,-0.0798807144165039,0.9739925861358643,7.726398944854736,5.96024227142334
1703342778063,0.01954767294228077,0.12003492563962936,0.02611446939408779,-0.07728230953216553,-0.10974550247192383,-0.0798807144165039,0.9739925861358643,7.726398944854736,5.96024227142334
1703342778161,0.01954767294228077,0.12003492563962936,0.02611446939408779,-0.07728230953216553,-0.10974550247192383,-0.0798807144165039,0.9739925861358643,7.726398944854736,5.96024227142334
1703342778258,0.01954767294228077,0.12003492563962936,0.02611446939408779,-0.07728230953216553,-0.10974550247192383,-0.0798807144165039,0.9739925861358643,7.726398944854736,5.96024227142334
1703342778355,0.01954767294228077,0.12003492563962936,0.02611446939408779,-0.07728230953216553,-0.10974550247192383,-0.0798807144165039,0.9739925861358643,7.726398944854736,5.96024227142334
1703342778453,0.01954767294228077,0.12003492563962936,0.02611446939408779,-0.07728230953216553,-0.10974550247192383,-0.0798807144165039,0.9739925861358643,7.726398944854736,5.96024227142334
1703342778551,0.01954767294228077,0.12003492563962936,0.02611446939408779,-0.07728230953216553,-0.10974550247192383,-0.0798807144165039,0.9739925861358643,7.726398944854736,5.96024227142334
1703342778648,0.01954767294228077,0.12003492563962936,0.02611446939408779,-0.07728230953216553,-0.10974550247192383,-0.0798807144165039,0.9739925861358643,7.726398944854736,5.96024227142334
1703342778746,0.01954767294228077,0.12003492563962936,0.02611446939408779,-0.07728230953216553,-0.10974550247192383,-0.0798807144165039,0.9739925861358643,7.726398944854736,5.96024227142334
1703342778844,0.01954767294228077,0.12003492563962936,0.02611446939408779,-0.07728230953216553,-0.10974550247192383,-0.0798807144165039,0.9739925861358643,7.726398944854736,5.96024227142334
1703342779039,0.01954767294228077,0.12003492563962936,0.02611446939408779,-0.07728230953216553,-0.10974550247192383,-0.0798807144165039,0.9739925861358643,7.726398944854736,5.96024227142334
1703342779039,0.01954767294228077,0.12003492563962936,0.02611446939408779,-0.07728230953216553,-0.10974550247192383,-0.0798807144165039,0.9739925861358643,7.726398944854736,5.96024227142334
1703342779137,0.01954767294228077,0.12003492563962936,0.02611446939408779,-0.07728230953216553,-0.10974550247192383,-0.0798807144165039,0.9739925861358643,7.726398944854736,5.96024227142334
1703342779234,0.01954767294228077,0.12003492563962936,0.02611446939408779,-0.07728230953216553,-0.10974550247192383,-0.0798807144165039,0.9739925861358643,7.726398944854736,5.96024227142334
1703342779332,0.01954767294228077,0.12003492563962936,0.02611446939408779,-0.07728230953216553,-0.10974550247192383,-0.0798807144165039,0.9739925861358643,7.726398944854736,5.96024227142334
1703342779429,0.01954767294228077,0.12003492563962936,0.02611446939408779,-0.07728230953216553,-0.10974550247192383,-0.0798807144165039,0.9739925861358643,7.726398944854736,5.96024227142334
1703342779527,0.01954767294228077,0.12003492563962936,0.02611446939408779,-0.07728230953216553,-0.10974550247192383,-0.0798807144165039,0.9739925861358643,7.726398944854736,5.96024227142334
1703342779625,0.01954767294228077,0.12003492563962936,0.02611446939408779,-0.07728230953216553,-0.10974550247192383,-0.0798807144165039,0.9739925861358643,7.726398944854736,5.96024227142334
1703342779723,0.01954767294228077,0.12003492563962936,0.02611446939408779,-0.07728230953216553,-0.10974550247192383,-0.0798807144165039,0.9739925861358643,7.726398944854736,5.96024227142334
1703342779820,0.01954767294228077,0.12003492563962936,0.02611446939408779,-0.07728230953216553,-0.10974550247192383,-0.0798807144165039,0.9739925861358643,7.726398944854736,5.96024227142334
1703342779918,0.01954767294228077,0.12003492563962936,0.02611446939408779,-0.07728230953216553,-0.10974550247192383,-0.0798807144165039,0.9739925861358643,7.726398944854736,5.96024227142334
1703342780015,0.01954767294228077,0.12003492563962936,0.02611446939408779,-0.07728230953216553,-0.10974550247192383,-0.0798807144165039,0.9739925861358643,7.726398944854736,5.96024227142334
1703342780113,0.01954767294228077,0.12003492563962936,0.02611446939408779,-0.07728230953216553,-0.10974550247192383,-0.0798807144165039,0.9739925861358643,7.726398944854736,5.96024227142334
1703342780210,0.01954767294228077,0.12003492563962936,0.02611446939408779,-0.07728230953216553,-0.10974550247192383,-0.0798807144165039,0.9739925861358643,7.726398944854736,5.96024227142334
1703342780308,0.01954767294228077,0.12003492563962936,0.02611446939408779,-0.07728230953216553,-0.10974550247192383,-0.0798807144165039,0.9739925861358643,7.726398944854736,5.96024227142334
1703342780405,0.01954767294228077,0.12003492563962936,0.02611446939408779,-0.07728230953216553,-0.10974550247192383,-0.0798807144165039,0.9739925861358643,7.726398944854736,5.96024227142334
1703342780503,0.01954767294228077,0.12003492563962936,0.02611446939408779,-0.07728230953216553,-0.10974550247192383,-0.0798807144165039,0.9739925861358643,7.726398944854736,5.96024227142334
1703342780601,0.01954767294228077,0.12003492563962936,0.02611446939408779,-0.07728230953216553,-0.10974550247192383,-0.0798807144165039,0.9739925861358643,7.726398944854736,5.96024227142334
1703342780698,0.01954767294228077,0.12003492563962936,0.02611446939408779,-0.07728230953216553,-0.10974550247192383,-0.0798807144165039,0.9739925861358643,7.726398944854736,5.96024227142334
1703342780797,0.01954767294228077,0.12003492563962936,0.02611446939408779,-0.07728230953216553,-0.10974550247192383,-0.0798807144165039,0.9739925861358643,7.726398944854736,5.96024227142334
1703342780894,0.01954767294228077,0.12003492563962936,0.02611446939408779,-0.07728230953216553,-0.10974550247192383,-0.0798807144165039,0.9739925861358643,7.726398944854736,5.96024227142334
1703342780991,0.01954767294228077,0.12003492563962936,0.02611446939408779,-0.07728230953216553,-0.10974550247192383,-0.0798807144165039,0.9739925861358643,7.726398944854736,5.96024227142334
1703342781089,0.01954767294228077,0.12003492563962936,0.02611446939408779,-0.07728230953216553,-0.10974550247192383,-0.0798807144165039,0.9739925861358643,7.726398944854736,5.96024227142334
1703342781187,0.01954767294228077,0.12003492563962936,0.02611446939408779,-0.07728230953216553,-0.10974550247192383,-0.0798807144165039,0.9739925861358643,7.726398944854736,5.96024227142334
1703342781284,0.01954767294228077,0.12003492563962936,0.02611446939408779,-0.07728230953216553,-0.10974550247192383,-0.0798807144165039,0.9739925861358643,7.726398944854736,5.96024227142334
1703342781382,0.01954767294228077,0.12003492563962936,0.02611446939408779,-0.07728230953216553,-0.10974550247192383,-0.0798807144165039,0.9739925861358643,7.726398944854736,5.96024227142334
1703342781480,0.01954767294228077,0.12003492563962936,0.02611446939408779,-0.07728230953216553,-0.10974550247192383,-0.0798807144165039,0.9739925861358643,7.726398944854736,5.96024227142334
1703342781577,0.01954767294228077,0.12003492563962936,0.02611446939408779,-0.07728230953216553,-0.10974550247192383,-0.0798807144165039,0.9739925861358643,7.726398944854736,5.96024227142334
1703342781675,0.01954767294228077,0.12003492563962936,0.02611446939408779,-0.07728230953216553,-0.10974550247192383,-0.0798807144165039,0.9739925861358643,7.726398944854736,5.96024227142334
1703342781772,0.01954767294228077,0.12003492563962936,0.02611446939408779,-0.07728230953216553,-0.10974550247192383,-0.0798807144165039,0.9739925861358643,7.726398944854736,5.96024227142334
1703342781870,0.01954767294228077,0.12003492563962936,0.02611446939408779,-0.07728230953216553,-0.10974550247192383,-0.0798807144165039,0.9739925861358643,7.726398944854736,5.96024227142334
1703342781967,0.01954767294228077,0.12003492563962936,0.02611446939408779,-0.07728230953216553,-0.10974550247192383,-0.0798807144165039,0.9739925861358643,7.726398944854736,5.96024227142334
1703342782065,0.01954767294228077,0.12003492563962936,0.02611446939408779,-0.07728230953216553,-0.10974550247192383,-0.0798807144165039,0.9739925861358643,7.726398944854736,5.96024227142334
1703342782162,0.01954767294228077,0.12003492563962936,0.02611446939408779,-0.07728230953216553,-0.10974550247192383,-0.0798807144165039,0.9739925861358643,7.726398944854736,5.96024227142334
1703342782260,0.01954767294228077,0.12003492563962936,0.02611446939408779,-0.07728230953216553,-0.10974550247192383,-0.0798807144165039,0.9739925861358643,7.726398944854736,5.96024227142334
1703342782358,0.01954767294228077,0.12003492563962936,0.02611446939408779,-0.07728230953216553,-0.10974550247192383,-0.0798807144165039,0.9739925861358643,7.726398944854736,5.96024227142334
1703342782455,0.01954767294228077,0.12003492563962936,0.02611446939408779,-0.07728230953216553,-0.10974550247192383,-0.0798807144165039,0.9739925861358643,7.726398944854736,5.96024227142334
1703342782553,0.01954767294228077,0.12003492563962936,0.02611446939408779,-0.07728230953216553,-0.10974550247192383,-0.0798807144165039,0.9739925861358643,7.726398944854736,5.96024227142334
1703342782651,0.01954767294228077,0.12003492563962936,0.02611446939408779,-0.07728230953216553,-0.10974550247192383,-0.0798807144165039,0.9739925861358643,7.726398944854736,5.96024227142334
1703342782749,0.01954767294228077,0.12003492563962936,0.02611446939408779,-0.07728230953216553,-0.10974550247192383,-0.0798807144165039,0.9739925861358643,7.726398944854736,5.96024227142334
1703342782846,0.01954767294228077,0.12003492563962936,0.02611446939408779,-0.07728230953216553,-0.10974550247192383,-0.0798807144165039,0.9739925861358643,7.726398944854736,5.96024227142334
1703342782944,0.01954767294228077,0.12003492563962936,0.02611446939408779,-0.07728230953216553,-0.10974550247192383,-0.0798807144165039,0.9739925861358643,7.726398944854736,5.96024227142334
1703342783042,0.01954767294228077,0.12003492563962936,0.02611446939408779,-0.07728230953216553,-0.10974550247192383,-0.0798807144165039,0.9739925861358643,7.726398944854736,5.96024227142334
1703342783139,0.01954767294228077,0.12003492563962936,0.02611446939408779,-0.07728230953216553,-0.10974550247192383,-0.0798807144165039,0.9739925861358643,7.726398944854736,5.96024227142334
1703342783237,0.01954767294228077,0.12003492563962936,0.02611446939408779,-0.07728230953216553,-0.10974550247192383,-0.0798807144165039,0.9739925861358643,7.726398944854736,5.96024227142334
1703342783334,0.01954767294228077,0.12003492563962936,0.02611446939408779,-0.07728230953216553,-0.10974550247192383,-0.0798807144165039,0.9739925861358643,7.726398944854736,5.96024227142334
1703342783432,0.01954767294228077,0.12003492563962936,0.02611446939408779,-0.07728230953216553,-0.10974550247192383,-0.0798807144165039,0.9739925861358643,7.726398944854736,5.96024227142334
1703342783529,0.01954767294228077,0.12003492563962936,0.02611446939408779,-0.07728230953216553,-0.10974550247192383,-0.0798807144165039,0.9739925861358643,7.726398944854736,5.96024227142334
1703342783627,0.01954767294228077,0.12003492563962936,0.02611446939408779,-0.07728230953216553,-0.10974550247192383,-0.0798807144165039,0.9739925861358643,7.726398944854736,5.96024227142334
1703342783724,0.01954767294228077,0.12003492563962936,0.02611446939408779,-0.07728230953216553,-0.10974550247192383,-0.0798807144165039,0.9739925861358643,7.726398944854736,5.96024227142334
1703342783823,0.01954767294228077,0.12003492563962936,0.02611446939408779,-0.07728230953216553,-0.10974550247192383,-0.0798807144165039,0.9739925861358643,7.726398944854736,5.96024227142334
1703342783920,0.01954767294228077,0.12003492563962936,0.02611446939408779,-0.07728230953216553,-0.10974550247192383,-0.0798807144165039,0.9739925861358643,7.726398944854736,5.96024227142334
1703342784018,0.01954767294228077,0.12003492563962936,0.02611446939408779,-0.07728230953216553,-0.10974550247192383,-0.0798807144165039,0.9739925861358643,7.726398944854736,5.96024227142334
1703342784115,0.01954767294228077,0.12003492563962936,0.02611446939408779,-0.07728230953216553,-0.10974550247192383,-0.0798807144165039,0.9739925861358643,7.726398944854736,5.96024227142334
1703342784213,0.01954767294228077,0.12003492563962936,0.02611446939408779,-0.07728230953216553,-0.10974550247192383,-0.0798807144165039,0.9739925861358643,7.726398944854736,5.96024227142334
1703342784311,0.01954767294228077,0.12003492563962936,0.02611446939408779,-0.07728230953216553,-0.10974550247192383,-0.0798807144165039,0.9739925861358643,7.726398944854736,5.96024227142334
1703342784409,0.01954767294228077,0.12003492563962936,0.02611446939408779,-0.07728230953216553,-0.10974550247192383,-0.0798807144165039,0.9739925861358643,7.726398944854736,5.96024227142334
1703342784506,0.01954767294228077,0.12003492563962936,0.02611446939408779,-0.07728230953216553,-0.10974550247192383,-0.0798807144165039,0.9739925861358643,7.726398944854736,5.96024227142334
1703342784603,0.01954767294228077,0.12003492563962936,0.02611446939408779,-0.07728230953216553,-0.10974550247192383,-0.0798807144165039,0.9739925861358643,7.726398944854736,5.96024227142334
1703342784701,0.01954767294228077,0.12003492563962936,0.02611446939408779,-0.07728230953216553,-0.10974550247192383,-0.0798807144165039,0.9739925861358643,7.726398944854736,5.96024227142334
1703342784799,0.01954767294228077,0.12003492563962936,0.02611446939408779,-0.07728230953216553,-0.10974550247192383,-0.0798807144165039,0.9739925861358643,7.726398944854736,5.96024227142334
1703342784896,0.01954767294228077,0.12003492563962936,0.02611446939408779,-0.07728230953216553,-0.10974550247192383,-0.0798807144165039,0.9739925861358643,7.726398944854736,5.96024227142334
1703342784994,0.01954767294228077,0.12003492563962936,0.02611446939408779,-0.07728230953216553,-0.10974550247192383,-0.0798807144165039,0.9739925861358643,7.726398944854736,5.96024227142334
1703342785092,0.01954767294228077,0.12003492563962936,0.02611446939408779,-0.07728230953216553,-0.10974550247192383,-0.0798807144165039,0.9739925861358643,7.726398944854736,5.96024227142334
1703342785189,0.01954767294228077,0.12003492563962936,0.02611446939408779,-0.07728230953216553,-0.10974550247192383,-0.0798807144165039,0.9739925861358643,7.726398944854736,5.96024227142334
1703342785286,0.01954767294228077,0.12003492563962936,0.02611446939408779,-0.07728230953216553,-0.10974550247192383,-0.0798807144165039,0.9739925861358643,7.726398944854736,5.96024227142334
1703342785384,0.01954767294228077,0.12003492563962936,0.02611446939408779,-0.07728230953216553,-0.10974550247192383,-0.0798807144165039,0.9739925861358643,7.726398944854736,5.96024227142334
1703342785482,0.01954767294228077,0.12003492563962936,0.02611446939408779,-0.07728230953216553,-0.10974550247192383,-0.0798807144165039,0.9739925861358643,7.726398944854736,5.96024227142334
1703342785580,0.01954767294228077,0.12003492563962936,0.02611446939408779,-0.07728230953216553,-0.10974550247192383,-0.0798807144165039,0.9739925861358643,7.726398944854736,5.96024227142334
1703342785677,0.01954767294228077,0.12003492563962936,0.02611446939408779,-0.07728230953216553,-0.10974550247192383,-0.0798807144165039,0.9739925861358643,7.726398944854736,5.96024227142334
1703342785775,0.01954767294228077,0.12003492563962936,0.02611446939408779,-0.07728230953216553,-0.10974550247192383,-0.0798807144165039,0.9739925861358643,7.726398944854736,5.96024227142334
1703342785873,0.01954767294228077,0.12003492563962936,0.02611446939408779,-0.07728230953216553,-0.10974550247192383,-0.0798807144165039,0.9739925861358643,7.726398944854736,5.96024227142334
1703342785970,0.01954767294228077,0.12003492563962936,0.02611446939408779,-0.07728230953216553,-0.10974550247192383,-0.0798807144165039,0.9739925861358643,7.726398944854736,5.96024227142334
1703342786068,0.01954767294228077,0.12003492563962936,0.02611446939408779,-0.07728230953216553,-0.10974550247192383,-0.0798807144165039,0.9739925861358643,7.726398944854736,5.96024227142334
1703342786165,0.01954767294228077,0.12003492563962936,0.02611446939408779,-0.07728230953216553,-0.10974550247192383,-0.0798807144165039,0.9739925861358643,7.726398944854736,5.96024227142334
1703342786263,0.01954767294228077,0.12003492563962936,0.02611446939408779,-0.07728230953216553,-0.10974550247192383,-0.0798807144165039,0.9739925861358643,7.726398944854736,5.96024227142334
1703342786361,0.01954767294228077,0.12003492563962936,0.02611446939408779,-0.07728230953216553,-0.10974550247192383,-0.0798807144165039,0.9739925861358643,7.726398944854736,5.96024227142334
1703342786458,0.01954767294228077,0.12003492563962936,0.02611446939408779,-0.07728230953216553,-0.10974550247192383,-0.0798807144165039,0.9739925861358643,7.726398944854736,5.96024227142334
1703342786556,0.01954767294228077,0.12003492563962936,0.02611446939408779,-0.07728230953216553,-0.10974550247192383,-0.0798807144165039,0.9739925861358643,7.726398944854736,5.96024227142334
1703342786654,0.01954767294228077,0.12003492563962936,0.02611446939408779,-0.07728230953216553,-0.10974550247192383,-0.0798807144165039,0.9739925861358643,7.726398944854736,5.96024227142334
1703342786751,0.01954767294228077,0.12003492563962936,0.02611446939408779,-0.07728230953216553,-0.10974550247192383,-0.0798807144165039,0.9739925861358643,7.726398944854736,5.96024227142334
1703342786848,0.01954767294228077,0.12003492563962936,0.02611446939408779,-0.07728230953216553,-0.10974550247192383,-0.0798807144165039,0.9739925861358643,7.726398944854736,5.96024227142334
1703342786946,0.01954767294228077,0.12003492563962936,0.02611446939408779,-0.07728230953216553,-0.10974550247192383,-0.0798807144165039,0.9739925861358643,7.726398944854736,5.96024227142334
1703342787044,0.01954767294228077,0.12003492563962936,0.02611446939408779,-0.07728230953216553,-0.10974550247192383,-0.0798807144165039,0.9739925861358643,7.726398944854736,5.96024227142334
1703342787142,0.01954767294228077,0.12003492563962936,0.02611446939408779,-0.07728230953216553,-0.10974550247192383,-0.0798807144165039,0.9739925861358643,7.726398944854736,5.96024227142334
1703342787239,0.01954767294228077,0.12003492563962936,0.02611446939408779,-0.07728230953216553,-0.10974550247192383,-0.0798807144165039,0.9739925861358643,7.726398944854736,5.96024227142334
1703342787336,0.01954767294228077,0.12003492563962936,0.02611446939408779,-0.07728230953216553,-0.10974550247192383,-0.0798807144165039,0.9739925861358643,7.726398944854736,5.96024227142334
1703342787434,0.01954767294228077,0.12003492563962936,0.02611446939408779,-0.07728230953216553,-0.10974550247192383,-0.0798807144165039,0.9739925861358643,7.726398944854736,5.96024227142334
1703342787532,0.01954767294228077,0.12003492563962936,0.02611446939408779,-0.07728230953216553,-0.10974550247192383,-0.0798807144165039,0.9739925861358643,7.726398944854736,5.96024227142334
1703342787630,0.01954767294228077,0.12003492563962936,0.02611446939408779,-0.07728230953216553,-0.10974550247192383,-0.0798807144165039,0.9739925861358643,7.726398944854736,5.96024227142334
1703342787728,0.01954767294228077,0.12003492563962936,0.02611446939408779,-0.07728230953216553,-0.10974550247192383,-0.0798807144165039,0.9739925861358643,7.726398944854736,5.96024227142334
1703342787825,0.01954767294228077,0.12003492563962936,0.02611446939408779,-0.07728230953216553,-0.10974550247192383,-0.0798807144165039,0.9739925861358643,7.726398944854736,5.96024227142334
1703342787923,0.01954767294228077,0.12003492563962936,0.02611446939408779,-0.07728230953216553,-0.10974550247192383,-0.0798807144165039,0.9739925861358643,7.726398944854736,5.96024227142334
1703342788020,0.01954767294228077,0.12003492563962936,0.02611446939408779,-0.07728230953216553,-0.10974550247192383,-0.0798807144165039,0.9739925861358643,7.726398944854736,5.96024227142334
1703342788118,0.01954767294228077,0.12003492563962936,0.02611446939408779,-0.07728230953216553,-0.10974550247192383,-0.0798807144165039,0.9739925861358643,7.726398944854736,5.96024227142334
1703342788216,0.01954767294228077,0.12003492563962936,0.02611446939408779,-0.07728230953216553,-0.10974550247192383,-0.0798807144165039,0.9739925861358643,7.726398944854736,5.96024227142334
1703342788313,0.01954767294228077,0.12003492563962936,0.02611446939408779,-0.07728230953216553,-0.10974550247192383,-0.0798807144165039,0.9739925861358643,7.726398944854736,5.96024227142334
1703342788411,0.01954767294228077,0.12003492563962936,0.02611446939408779,-0.07728230953216553,-0.10974550247192383,-0.0798807144165039,0.9739925861358643,7.726398944854736,5.96024227142334
1703342788508,0.01954767294228077,0.12003492563962936,0.02611446939408779,-0.07728230953216553,-0.10974550247192383,-0.0798807144165039,0.9739925861358643,7.726398944854736,5.96024227142334
1703342788606,0.01954767294228077,0.12003492563962936,0.02611446939408779,-0.07728230953216553,-0.10974550247192383,-0.0798807144165039,0.9739925861358643,7.726398944854736,5.96024227142334
1703342788703,0.01954767294228077,0.12003492563962936,0.02611446939408779,-0.07728230953216553,-0.10974550247192383,-0.0798807144165039,0.9739925861358643,7.726398944854736,5.96024227142334
1703342788802,0.01954767294228077,0.12003492563962936,0.02611446939408779,-0.07728230953216553,-0.10974550247192383,-0.0798807144165039,0.9739925861358643,7.726398944854736,5.96024227142334
1703342788898,0.01954767294228077,0.12003492563962936,0.02611446939408779,-0.07728230953216553,-0.10974550247192383,-0.0798807144165039,0.9739925861358643,7.726398944854736,5.96024227142334
1703342788997,0.01954767294228077,0.12003492563962936,0.02611446939408779,-0.07728230953216553,-0.10974550247192383,-0.0798807144165039,0.9739925861358643,7.726398944854736,5.96024227142334
1703342789094,0.01954767294228077,0.12003492563962936,0.02611446939408779,-0.07728230953216553,-0.10974550247192383,-0.0798807144165039,0.9739925861358643,7.726398944854736,5.96024227142334
1703342789191,0.01954767294228077,0.12003492563962936,0.02611446939408779,-0.07728230953216553,-0.10974550247192383,-0.0798807144165039,0.9739925861358643,7.726398944854736,5.96024227142334
1703342789289,0.01954767294228077,0.12003492563962936,0.02611446939408779,-0.07728230953216553,-0.10974550247192383,-0.0798807144165039,0.9739925861358643,7.726398944854736,5.96024227142334
1703342789387,0.01954767294228077,0.12003492563962936,0.02611446939408779,-0.07728230953216553,-0.10974550247192383,-0.0798807144165039,0.9739925861358643,7.726398944854736,5.96024227142334
1703342789484,0.01954767294228077,0.12003492563962936,0.02611446939408779,-0.07728230953216553,-0.10974550247192383,-0.0798807144165039,0.9739925861358643,7.726398944854736,5.96024227142334
1703342789582,0.01954767294228077,0.12003492563962936,0.02611446939408779,-0.07728230953216553,-0.10974550247192383,-0.0798807144165039,0.9739925861358643,7.726398944854736,5.96024227142334
1703342789679,0.01954767294228077,0.12003492563962936,0.02611446939408779,-0.07728230953216553,-0.10974550247192383,-0.0798807144165039,0.9739925861358643,7.726398944854736,5.96024227142334
1703342789777,0.01954767294228077,0.12003492563962936,0.02611446939408779,-0.07728230953216553,-0.10974550247192383,-0.0798807144165039,0.9739925861358643,7.726398944854736,5.96024227142334
1703342789875,0.01954767294228077,0.12003492563962936,0.02611446939408779,-0.07728230953216553,-0.10974550247192383,-0.0798807144165039,0.9739925861358643,7.726398944854736,5.96024227142334
1703342789972,0.01954767294228077,0.12003492563962936,0.02611446939408779,-0.07728230953216553,-0.10974550247192383,-0.0798807144165039,0.9739925861358643,7.726398944854736,5.96024227142334
1703342790071,0.01954767294228077,0.12003492563962936,0.02611446939408779,-0.07728230953216553,-0.10974550247192383,-0.0798807144165039,0.9739925861358643,7.726398944854736,5.96024227142334
1703342790168,0.01954767294228077,0.12003492563962936,0.02611446939408779,-0.07728230953216553,-0.10974550247192383,-0.0798807144165039,0.9739925861358643,7.726398944854736,5.96024227142334
1703342790265,0.01954767294228077,0.12003492563962936,0.02611446939408779,-0.07728230953216553,-0.10974550247192383,-0.0798807144165039,0.9739925861358643,7.726398944854736,5.96024227142334
1703342790363,0.01954767294228077,0.12003492563962936,0.02611446939408779,-0.07728230953216553,-0.10974550247192383,-0.0798807144165039,0.9739925861358643,7.726398944854736,5.96024227142334
1703342790460,0.01954767294228077,0.12003492563962936,0.02611446939408779,-0.07728230953216553,-0.10974550247192383,-0.0798807144165039,0.9739925861358643,7.726398944854736,5.96024227142334
1703342790558,0.01954767294228077,0.12003492563962936,0.02611446939408779,-0.07728230953216553,-0.10974550247192383,-0.0798807144165039,0.9739925861358643,7.726398944854736,5.96024227142334
1703342790656,0.01954767294228077,0.12003492563962936,0.02611446939408779,-0.07728230953216553,-0.10974550247192383,-0.0798807144165039,0.9739925861358643,7.726398944854736,5.96024227142334
1703342790754,0.01954767294228077,0.12003492563962936,0.02611446939408779,-0.07728230953216553,-0.10974550247192383,-0.0798807144165039,0.9739925861358643,7.726398944854736,5.96024227142334
1703342790851,0.01954767294228077,0.12003492563962936,0.02611446939408779,-0.07728230953216553,-0.10974550247192383,-0.0798807144165039,0.9739925861358643,7.726398944854736,5.96024227142334
1703342790949,0.01954767294228077,0.12003492563962936,0.02611446939408779,-0.07728230953216553,-0.10974550247192383,-0.0798807144165039,0.9739925861358643,7.726398944854736,5.96024227142334
1703342791046,0.01954767294228077,0.12003492563962936,0.02611446939408779,-0.07728230953216553,-0.10974550247192383,-0.0798807144165039,0.9739925861358643,7.726398944854736,5.96024227142334
1703342791144,0.01954767294228077,0.12003492563962936,0.02611446939408779,-0.07728230953216553,-0.10974550247192383,-0.0798807144165039,0.9739925861358643,7.726398944854736,5.96024227142334
1703342791242,0.01954767294228077,0.12003492563962936,0.02611446939408779,-0.07728230953216553,-0.10974550247192383,-0.0798807144165039,0.9739925861358643,7.726398944854736,5.96024227142334
1703342791339,0.01954767294228077,0.12003492563962936,0.02611446939408779,-0.07728230953216553,-0.10974550247192383,-0.0798807144165039,0.9739925861358643,7.726398944854736,5.96024227142334
1703342791437,0.01954767294228077,0.12003492563962936,0.02611446939408779,-0.07728230953216553,-0.10974550247192383,-0.0798807144165039,0.9739925861358643,7.726398944854736,5.96024227142334
1703342791534,0.01954767294228077,0.12003492563962936,0.02611446939408779,-0.07728230953216553,-0.10974550247192383,-0.0798807144165039,0.9739925861358643,7.726398944854736,5.96024227142334
1703342791633,0.01954767294228077,0.12003492563962936,0.02611446939408779,-0.07728230953216553,-0.10974550247192383,-0.0798807144165039,0.9739925861358643,7.726398944854736,5.96024227142334
1703342791730,0.01954767294228077,0.12003492563962936,0.02611446939408779,-0.07728230953216553,-0.10974550247192383,-0.0798807144165039,0.9739925861358643,7.726398944854736,5.96024227142334
1703342791827,0.01954767294228077,0.12003492563962936,0.02611446939408779,-0.07728230953216553,-0.10974550247192383,-0.0798807144165039,0.9739925861358643,7.726398944854736,5.96024227142334
1703342791925,0.01954767294228077,0.12003492563962936,0.02611446939408779,-0.07728230953216553,-0.10974550247192383,-0.0798807144165039,0.9739925861358643,7.726398944854736,5.96024227142334
1703342792023,0.01954767294228077,0.12003492563962936,0.02611446939408779,-0.07728230953216553,-0.10974550247192383,-0.0798807144165039,0.9739925861358643,7.726398944854736,5.96024227142334
1703342792120,0.01954767294228077,0.12003492563962936,0.02611446939408779,-0.07728230953216553,-0.10974550247192383,-0.0798807144165039,0.9739925861358643,7.726398944854736,5.96024227142334
1703342792218,0.01954767294228077,0.12003492563962936,0.02611446939408779,-0.07728230953216553,-0.10974550247192383,-0.0798807144165039,0.9739925861358643,7.726398944854736,5.96024227142334
1703342792316,0.01954767294228077,0.12003492563962936,0.02611446939408779,-0.07728230953216553,-0.10974550247192383,-0.0798807144165039,0.9739925861358643,7.726398944854736,5.96024227142334
1703342792413,0.01954767294228077,0.12003492563962936,0.02611446939408779,-0.07728230953216553,-0.10974550247192383,-0.0798807144165039,0.9739925861358643,7.726398944854736,5.96024227142334
1703342792511,0.01954767294228077,0.12003492563962936,0.02611446939408779,-0.07728230953216553,-0.10974550247192383,-0.0798807144165039,0.9739925861358643,7.726398944854736,5.96024227142334
1703342792609,0.01954767294228077,0.12003492563962936,0.02611446939408779,-0.07728230953216553,-0.10974550247192383,-0.0798807144165039,0.9739925861358643,7.726398944854736,5.96024227142334
1703342792706,0.01954767294228077,0.12003492563962936,0.02611446939408779,-0.07728230953216553,-0.10974550247192383,-0.0798807144165039,0.9739925861358643,7.726398944854736,5.96024227142334
1703342792804,0.01954767294228077,0.12003492563962936,0.02611446939408779,-0.07728230953216553,-0.10974550247192383,-0.0798807144165039,0.9739925861358643,7.726398944854736,5.96024227142334
1703342792901,0.01954767294228077,0.12003492563962936,0.02611446939408779,-0.07728230953216553,-0.10974550247192383,-0.0798807144165039,0.9739925861358643,7.726398944854736,5.96024227142334
1703342792998,0.01954767294228077,0.12003492563962936,0.02611446939408779,-0.07728230953216553,-0.10974550247192383,-0.0798807144165039,0.9739925861358643,7.726398944854736,5.96024227142334
1703342793097,0.01954767294228077,0.12003492563962936,0.02611446939408779,-0.07728230953216553,-0.10974550247192383,-0.0798807144165039,0.9739925861358643,7.726398944854736,5.96024227142334
1703342793194,0.01954767294228077,0.12003492563962936,0.02611446939408779,-0.07728230953216553,-0.10974550247192383,-0.0798807144165039,0.9739925861358643,7.726398944854736,5.96024227142334
